File: Verification/WUI/USDA_FPL_Longleaf_Pine_Needle_TGA_Data.csv
s,C,g/g,1/s,s,C,g/g,1/s,s,C,g/g,1/s,s,C,g/g,1/s,s,C,g/g,1/s,s,C,g/g,1/s,s,C,g/g,1/s,s,C,g/g,1/s
A-Time,A-Temperature,A-Mass,A-Mdot,B-Time,B-Temperature,B-Mass,B-Mdot,C-Time,C-Temperature,C-Mass,C-Mdot,D-Time,D-Temperature,D-Mass,D-Mdot,E-Time,E-Temperature,E-Mass,E-Mdot,F-Time,F-Temperature,F-Mass,F-Mdot,G-Time,G-Temperature,G-Mass,G-Mdot,H-Time,H-Temperature,H-Mass,H-Mdot
0.0,27.8,1.0000,0.000333,0.0,22.1,1.0000,0.000034,0.0,20.0,1.0000,0.000218,0.0,22.2,1.0000,0.000246,0.0,21.7,1.0000,0.000358,0.0,17.9,1.0000,0.000105,0.0,47.0,1.0000,0.000576,0.0,18.2,1.0000,0.000216
24.7,36.3,0.9914,0.000470,24.7,35.0,0.9988,0.000123,30.1,37.3,0.9921,0.000407,30.1,38.5,0.9912,0.000451,64.5,71.9,0.9605,0.000942,6.8,21.5,0.9994,0.000111,12.2,46.4,0.9930,0.000585,7.7,21.5,0.9984,0.000224
49.4,57.8,0.9758,0.000791,49.4,57.8,0.9928,0.000409,60.2,64.9,0.9714,0.001063,60.2,66.1,0.9683,0.001169,128.9,102.6,0.9204,0.000209,13.7,25.6,0.9987,0.000136,24.5,46.3,0.9855,0.000625,15.5,25.6,0.9966,0.000257
74.1,82.6,0.9542,0.000856,74.1,82.5,0.9791,0.000635,90.3,89.5,0.9269,0.001812,90.3,90.9,0.9192,0.002022,193.4,104.4,0.9148,0.000036,20.5,30.6,0.9976,0.000184,36.7,49.5,0.9774,0.000734,23.2,31.1,0.9944,0.000327
98.7,98.6,0.9368,0.000481,98.7,98.4,0.9645,0.000437,120.3,95.6,0.8683,0.001972,120.3,97.1,0.8531,0.002238,257.9,104.7,0.9131,0.000018,27.3,36.5,0.9961,0.000249,48.9,57.4,0.9673,0.000946,30.9,37.6,0.9915,0.000436
123.4,102.6,0.9299,0.000171,123.4,102.4,0.9579,0.000166,150.4,97.1,0.8108,0.001856,150.4,98.4,0.7875,0.002131,322.3,104.8,0.9122,0.000010,34.2,42.8,0.9942,0.000328,61.2,67.9,0.9540,0.001262,38.7,44.6,0.9877,0.000580
148.1,103.8,0.9269,0.000078,148.1,103.6,0.9553,0.000065,180.5,97.8,0.7569,0.001728,180.5,99.1,0.7252,0.002018,386.8,105.0,0.9117,0.000007,41.0,49.3,0.9916,0.000414,73.4,79.2,0.9365,0.001637,46.4,51.8,0.9826,0.000749
172.8,104.2,0.9254,0.000047,172.8,104.1,0.9541,0.000034,210.6,98.4,0.7069,0.001600,210.6,99.6,0.6661,0.001903,451.2,108.0,0.9112,0.000007,47.8,56.1,0.9885,0.000502,85.6,88.5,0.9141,0.001965,54.1,58.6,0.9761,0.000922
197.5,104.5,0.9244,0.000033,197.5,104.2,0.9535,0.000020,240.7,98.9,0.6605,0.001487,240.7,100.0,0.6108,0.001779,515.7,111.6,0.9108,0.000007,54.7,62.9,0.9848,0.000585,97.9,93.6,0.8885,0.002153,61.9,64.0,0.9683,0.001072
222.2,104.4,0.9237,0.000024,222.2,104.2,0.9531,0.000013,270.8,99.4,0.6173,0.001381,270.8,100.4,0.5591,0.001654,580.2,115.5,0.9103,0.000007,61.5,69.8,0.9806,0.000656,110.1,95.8,0.8617,0.002208,69.6,67.6,0.9595,0.001184
246.8,104.6,0.9232,0.000018,246.8,104.3,0.9528,0.000007,300.8,100.0,0.5776,0.001260,300.8,101.0,0.5114,0.001512,644.6,119.4,0.9099,0.000007,68.3,76.8,0.9759,0.000702,122.3,96.9,0.8348,0.002192,77.3,69.7,0.9500,0.001255
271.5,104.6,0.9228,0.000013,271.5,104.4,0.9527,0.000004,330.9,100.4,0.5417,0.001118,330.9,101.5,0.4686,0.001319,709.1,123.0,0.9094,0.000008,75.2,83.6,0.9710,0.000708,134.6,97.6,0.8083,0.002151,85.1,71.0,0.9401,0.001296
296.2,104.3,0.9225,0.000011,296.2,104.5,0.9527,0.000002,361.0,101.0,0.5107,0.000933,361.0,102.1,0.4331,0.001021,773.6,126.9,0.9089,0.000007,82.0,89.6,0.9661,0.000665,146.8,98.1,0.7823,0.002102,92.8,71.8,0.9300,0.001319
320.9,104.5,0.9223,0.000011,320.9,104.6,0.9526,0.000001,391.1,101.6,0.4859,0.000713,391.1,102.9,0.4075,0.000696,838.0,130.6,0.9084,0.000009,88.8,94.3,0.9618,0.000579,159.0,98.4,0.7569,0.002052,100.5,72.4,0.9198,0.001331
345.6,104.5,0.9220,0.000009,345.6,104.6,0.9526,-0.000001,421.2,102.3,0.4679,0.000485,421.2,103.8,0.3912,0.000368,902.5,134.4,0.9078,0.000009,95.7,97.5,0.9582,0.000472,171.3,98.6,0.7321,0.002001,108.3,72.8,0.9095,0.001337
370.3,104.5,0.9218,0.000006,370.3,104.5,0.9526,-0.000003,451.3,103.1,0.4566,0.000266,451.3,104.5,0.3845,0.000120,967.0,138.2,0.9072,0.000010,102.5,99.5,0.9555,0.000366,183.5,98.7,0.7079,0.001950,116.0,73.1,0.8991,0.001337
394.9,105.6,0.9217,0.000006,394.9,105.6,0.9528,-0.000004,481.3,103.7,0.4511,0.000124,481.3,104.9,0.3823,0.000046,1031.4,142.1,0.9064,0.000012,109.3,100.9,0.9533,0.000277,195.7,98.9,0.6844,0.001900,123.7,73.3,0.8888,0.001333
419.6,108.9,0.9215,0.000007,419.6,108.9,0.9528,-0.000002,511.4,104.1,0.4484,0.000065,511.4,105.1,0.3812,0.000027,1095.9,145.7,0.9056,0.000014,116.2,101.8,0.9517,0.000210,208.0,99.1,0.6614,0.001853,131.5,73.5,0.8785,0.001326
444.3,112.9,0.9213,0.000009,444.3,112.8,0.9528,0.000001,541.5,104.4,0.4468,0.000040,541.5,105.3,0.3805,0.000018,1160.4,149.5,0.9047,0.000015,123.0,102.5,0.9505,0.000162,220.2,99.3,0.6390,0.001806,139.2,73.6,0.8683,0.001317
469.0,116.8,0.9211,0.000011,469.0,116.7,0.9528,0.000001,571.6,104.4,0.4458,0.000027,571.6,105.3,0.3801,0.000013,1224.8,153.2,0.9037,0.000017,129.8,103.0,0.9495,0.000129,232.4,99.5,0.6172,0.001757,146.9,73.7,0.8581,0.001308
493.7,120.7,0.9208,0.000014,493.7,120.7,0.9528,0.000003,601.7,104.5,0.4451,0.000020,601.7,105.4,0.3797,0.000010,1289.3,156.9,0.9025,0.000019,136.7,103.4,0.9487,0.000106,244.7,99.6,0.5960,0.001705,154.7,73.8,0.8481,0.001298
518.4,124.8,0.9205,0.000016,518.4,124.8,0.9527,0.000005,631.8,104.5,0.4446,0.000015,631.8,105.3,0.3795,0.000007,1353.7,160.6,0.9012,0.000021,143.5,103.7,0.9480,0.000089,256.9,99.7,0.5755,0.001652,162.4,73.8,0.8381,0.001288
543.0,128.9,0.9200,0.000016,543.0,129.0,0.9525,0.000005,661.8,104.6,0.4442,0.000012,661.8,105.3,0.3793,0.000006,1418.2,164.3,0.8997,0.000024,150.3,103.9,0.9474,0.000076,269.1,99.8,0.5556,0.001600,170.1,73.8,0.8282,0.001277
567.7,133.1,0.9197,0.000016,567.7,132.9,0.9524,0.000007,691.9,104.6,0.4439,0.000010,691.9,105.2,0.3791,0.000005,1482.7,168.1,0.8981,0.000027,157.2,104.0,0.9469,0.000066,281.4,100.0,0.5364,0.001556,177.9,73.8,0.8183,0.001267
592.4,137.1,0.9192,0.000019,592.4,137.0,0.9522,0.000007,722.0,104.6,0.4436,0.000008,722.0,105.3,0.3790,0.000004,1547.1,171.8,0.8962,0.000032,164.0,104.1,0.9465,0.000057,293.6,100.2,0.5176,0.001511,185.6,73.8,0.8086,0.001256
617.1,141.3,0.9187,0.000021,617.1,141.1,0.9520,0.000009,752.1,104.6,0.4434,0.000007,752.1,105.5,0.3789,0.000004,1611.6,175.6,0.8941,0.000035,170.8,104.2,0.9461,0.000050,305.8,100.3,0.4994,0.001449,193.3,73.9,0.7989,0.001245
641.8,145.4,0.9181,0.000025,641.8,145.3,0.9518,0.000011,782.2,104.7,0.4432,0.000006,782.2,105.5,0.3788,0.000003,1676.1,179.4,0.8916,0.000040,177.7,104.2,0.9458,0.000044,318.1,100.4,0.4822,0.001361,201.1,74.0,0.7893,0.001232
666.5,149.6,0.9175,0.000027,666.5,149.3,0.9515,0.000013,812.3,104.7,0.4430,0.000006,812.3,105.5,0.3787,0.000003,1740.5,183.2,0.8889,0.000044,184.5,104.3,0.9455,0.000039,330.3,100.7,0.4662,0.001253,208.8,74.0,0.7798,0.001217
691.2,153.6,0.9168,0.000032,691.2,153.4,0.9512,0.000014,842.4,104.7,0.4428,0.000005,842.4,105.5,0.3786,0.000003,1805.0,187.0,0.8860,0.000049,191.4,104.4,0.9453,0.000035,342.6,100.9,0.4516,0.001130,216.6,74.0,0.7704,0.001198
715.8,157.7,0.9159,0.000037,715.8,157.4,0.9508,0.000015,872.4,104.6,0.4427,0.000004,872.4,105.4,0.3785,0.000002,1869.5,190.7,0.8827,0.000053,198.2,104.4,0.9450,0.000031,354.8,101.3,0.4386,0.000998,224.3,74.0,0.7612,0.001182
740.5,161.7,0.9149,0.000042,740.5,161.6,0.9504,0.000016,902.5,104.7,0.4426,0.000004,902.5,105.5,0.3784,0.000002,1933.9,194.5,0.8791,0.000057,205.0,104.5,0.9448,0.000028,367.0,101.6,0.4272,0.000862,232.0,74.3,0.7520,0.001181
765.2,165.6,0.9138,0.000047,765.2,165.6,0.9500,0.000016,932.6,104.6,0.4425,0.000004,932.6,105.5,0.3784,0.000002,1998.4,198.1,0.8752,0.000064,211.9,104.5,0.9447,0.000026,379.3,102.0,0.4175,0.000726,239.8,75.8,0.7428,0.001222
789.9,169.7,0.9126,0.000053,789.9,169.8,0.9496,0.000017,962.7,104.6,0.4424,0.000003,962.7,105.5,0.3783,0.000002,2062.8,201.8,0.8709,0.000072,218.7,104.5,0.9445,0.000024,391.5,102.4,0.4094,0.000589,247.5,79.2,0.7332,0.001322
814.6,173.6,0.9112,0.000061,814.6,174.0,0.9492,0.000022,992.8,104.7,0.4423,0.000003,992.8,105.4,0.3783,0.000002,2127.3,205.5,0.8660,0.000080,225.5,104.5,0.9443,0.000023,403.7,102.7,0.4031,0.000452,255.2,84.3,0.7225,0.001486
839.3,177.8,0.9096,0.000068,839.3,178.1,0.9485,0.000031,1022.9,104.7,0.4422,0.000003,1022.9,105.5,0.3782,0.000002,2191.8,209.2,0.8606,0.000088,232.4,104.6,0.9442,0.000022,416.0,103.1,0.3983,0.000322,263.0,90.4,0.7103,0.001696
863.9,182.1,0.9078,0.000078,863.9,182.2,0.9476,0.000047,1052.9,104.7,0.4421,0.000003,1052.9,105.5,0.3782,0.000002,2256.2,213.1,0.8547,0.000095,239.2,104.6,0.9440,0.000020,428.2,103.4,0.3951,0.000212,270.7,96.7,0.6963,0.001913
888.6,186.3,0.9058,0.000088,888.6,186.4,0.9462,0.000066,1083.0,104.8,0.4420,0.000002,1083.0,105.3,0.3781,0.000001,2320.7,216.8,0.8484,0.000101,246.0,104.7,0.9439,0.000018,440.4,103.7,0.3931,0.000133,278.4,102.2,0.6806,0.002093
913.3,190.3,0.9035,0.000101,913.3,190.4,0.9444,0.000084,1113.1,104.7,0.4420,0.000002,1113.1,105.4,0.3781,0.000001,2385.2,220.5,0.8417,0.000105,252.9,104.7,0.9438,0.000016,452.7,103.9,0.3918,0.000085,286.2,105.9,0.6638,0.002202
938.0,194.4,0.9008,0.000113,938.0,194.5,0.9421,0.000102,1143.2,104.7,0.4419,0.000002,1143.2,105.4,0.3780,0.000002,2449.6,224.2,0.8349,0.000108,259.7,104.6,0.9437,0.000015,464.9,104.2,0.3909,0.000059,293.9,108.2,0.6465,0.002237
962.7,198.5,0.8979,0.000126,962.7,198.6,0.9393,0.000118,1173.3,104.6,0.4418,0.000002,1173.3,105.5,0.3780,0.000001,2514.1,227.8,0.8278,0.000111,266.5,104.6,0.9436,0.000014,477.1,104.4,0.3902,0.000045,301.6,109.7,0.6293,0.002218
987.4,202.6,0.8946,0.000139,987.4,202.5,0.9362,0.000133,1203.4,104.7,0.4418,0.000002,1203.4,105.5,0.3780,0.000001,2578.6,231.6,0.8207,0.000111,273.4,104.6,0.9435,0.000015,489.4,104.5,0.3898,0.000035,309.4,110.6,0.6123,0.002172
1012.0,206.7,0.8910,0.000154,1012.0,206.7,0.9327,0.000152,1233.4,104.8,0.4417,0.000002,1233.4,105.5,0.3779,0.000001,2643.0,235.4,0.8135,0.000110,280.2,104.7,0.9434,0.000014,501.6,104.5,0.3894,0.000029,317.1,111.3,0.5958,0.002115
1036.7,210.8,0.8870,0.000172,1036.7,211.0,0.9287,0.000176,1263.5,104.6,0.4417,0.000002,1263.5,105.6,0.3779,0.000001,2707.5,239.0,0.8064,0.000111,287.0,104.7,0.9433,0.000014,513.8,104.5,0.3890,0.000024,324.8,111.8,0.5797,0.002057
1061.4,214.8,0.8824,0.000196,1061.4,215.1,0.9240,0.000206,1293.6,105.6,0.4416,0.000001,1293.6,106.4,0.3779,0.000000,2772.0,242.8,0.7993,0.000111,293.9,104.7,0.9432,0.000013,526.1,104.5,0.3888,0.000020,332.6,112.2,0.5640,0.002000
1086.1,218.8,0.8773,0.000221,1086.1,219.2,0.9185,0.000239,1323.7,109.6,0.4416,0.000002,1323.7,110.5,0.3779,0.000001,2836.4,246.5,0.7921,0.000112,300.7,104.7,0.9431,0.000012,538.3,104.5,0.3885,0.000017,340.3,112.5,0.5488,0.001940
1110.8,223.0,0.8715,0.000247,1110.8,223.3,0.9122,0.000273,1353.8,114.3,0.4415,0.000002,1353.8,115.3,0.3778,0.000002,2900.9,250.2,0.7849,0.000113,307.5,104.7,0.9430,0.000012,550.5,104.5,0.3883,0.000015,348.0,112.8,0.5340,0.001875
1135.5,227.1,0.8651,0.000273,1135.5,227.4,0.9050,0.000305,1383.9,119.2,0.4415,0.000003,1383.9,120.2,0.3778,0.000002,2965.3,253.9,0.7774,0.000117,314.4,104.7,0.9430,0.000011,562.8,104.6,0.3882,0.000013,355.8,113.1,0.5198,0.001803
1160.1,231.1,0.8581,0.000293,1160.1,231.4,0.8972,0.000333,1413.9,124.2,0.4413,0.000004,1413.9,125.1,0.3777,0.000003,3029.8,257.5,0.7698,0.000121,321.2,104.7,0.9429,0.000011,575.0,104.6,0.3880,0.000011,363.5,113.4,0.5062,0.001720
1184.8,235.3,0.8506,0.000310,1184.8,235.6,0.8887,0.000354,1444.0,129.2,0.4412,0.000005,1444.0,130.0,0.3776,0.000004,3094.3,261.2,0.7619,0.000125,328.0,104.7,0.9428,0.000010,587.2,104.6,0.3879,0.000010,371.2,113.7,0.4933,0.001621
1209.5,239.3,0.8428,0.000322,1209.5,239.8,0.8797,0.000373,1474.1,134.2,0.4410,0.000007,1474.1,135.0,0.3774,0.000006,3158.7,265.1,0.7537,0.000130,334.9,104.7,0.9427,0.000009,599.5,104.6,0.3878,0.000009,379.0,114.0,0.4812,0.001495
1234.2,243.2,0.8348,0.000330,1234.2,243.8,0.8703,0.000388,1504.2,139.1,0.4408,0.000008,1504.2,140.0,0.3773,0.000007,3223.2,268.8,0.7452,0.000134,341.7,104.8,0.9427,0.000009,611.7,104.7,0.3877,0.000008,386.7,114.4,0.4702,0.001335
1258.9,247.4,0.8265,0.000338,1258.9,247.9,0.8606,0.000402,1534.3,144.0,0.4405,0.000010,1534.3,145.1,0.3770,0.000009,3287.7,272.6,0.7364,0.000139,348.5,104.8,0.9426,0.000009,623.9,104.7,0.3876,0.000007,394.4,114.3,0.4605,0.001137
1283.6,251.5,0.8181,0.000341,1283.6,252.3,0.8505,0.000414,1564.4,149.1,0.4402,0.000012,1564.4,150.1,0.3767,0.000011,3352.1,276.2,0.7273,0.000143,355.4,104.8,0.9426,0.000009,636.2,104.7,0.3875,0.000007,402.2,113.5,0.4525,0.000909
1308.3,255.5,0.8097,0.000344,1308.3,256.4,0.8401,0.000427,1594.5,153.9,0.4398,0.000014,1594.5,155.1,0.3763,0.000013,3416.6,279.9,0.7179,0.000150,362.2,104.7,0.9425,0.000007,648.4,104.6,0.3874,0.000006,409.9,111.8,0.4463,0.000676
1332.9,259.8,0.8011,0.000349,1332.9,260.6,0.8294,0.000442,1624.5,158.8,0.4393,0.000016,1624.5,160.0,0.3759,0.000016,3481.1,283.6,0.7080,0.000155,369.0,104.6,0.9424,0.000002,660.6,104.6,0.3874,0.000005,417.6,109.8,0.4420,0.000468
1357.6,263.8,0.7925,0.000354,1357.6,264.8,0.8183,0.000459,1654.6,163.9,0.4388,0.000019,1654.6,164.9,0.3754,0.000020,3545.5,287.3,0.6978,0.000162,375.9,104.8,0.9424,-0.000004,672.9,104.6,0.3873,0.000005,425.4,108.0,0.4392,0.000308
1382.3,268.0,0.7837,0.000362,1382.3,268.9,0.8067,0.000480,1684.7,169.0,0.4382,0.000023,1684.7,170.0,0.3747,0.000023,3610.0,291.0,0.6871,0.000170,382.7,105.7,0.9425,-0.000008,685.1,104.6,0.3872,0.000005,433.1,106.5,0.4373,0.000201
1407.0,271.9,0.7746,0.000373,1407.0,273.2,0.7946,0.000505,1714.8,174.0,0.4374,0.000028,1714.8,174.9,0.3740,0.000026,3674.4,294.7,0.6759,0.000178,389.5,108.1,0.9426,-0.000007,697.3,104.6,0.3872,0.000005,440.8,105.6,0.4360,0.000138
1431.7,276.1,0.7652,0.000384,1431.7,277.4,0.7817,0.000537,1744.9,179.1,0.4365,0.000032,1744.9,179.8,0.3731,0.000030,3738.9,298.4,0.6642,0.000186,396.4,111.9,0.9426,-0.000001,709.6,104.7,0.3871,0.000004,448.6,105.1,0.4351,0.000103
1456.4,280.2,0.7556,0.000396,1456.4,281.4,0.7680,0.000573,1775.0,183.9,0.4355,0.000036,1775.0,185.0,0.3722,0.000035,3803.4,301.9,0.6519,0.000195,403.2,116.9,0.9426,0.000008,721.8,104.6,0.3871,0.000004,456.3,104.8,0.4344,0.000082
1481.0,284.3,0.7457,0.000408,1481.0,285.7,0.7534,0.000615,1805.0,189.0,0.4343,0.000041,1805.0,190.0,0.3711,0.000037,3867.8,305.7,0.6390,0.000204,410.0,122.6,0.9425,0.000018,734.0,104.5,0.3870,0.000004,464.0,104.6,0.4337,0.000069
1505.7,288.4,0.7355,0.000419,1505.7,289.9,0.7376,0.000665,1835.1,194.0,0.4330,0.000046,1835.1,195.0,0.3699,0.000041,3932.3,309.4,0.6256,0.000214,416.9,128.7,0.9423,0.000028,746.3,104.6,0.3870,0.000004,471.8,104.6,0.4333,0.000058
1530.4,292.3,0.7250,0.000434,1530.4,294.1,0.7205,0.000724,1865.2,199.1,0.4315,0.000050,1865.2,200.1,0.3687,0.000043,3996.8,313.2,0.6113,0.000227,423.7,135.0,0.9421,0.000040,758.5,104.7,0.3869,0.000003,479.5,104.5,0.4328,0.000049
1555.1,296.3,0.7140,0.000452,1555.1,298.3,0.7018,0.000789,1895.3,204.2,0.4300,0.000053,1895.3,205.0,0.3673,0.000045,4061.2,317.0,0.5962,0.000243,430.5,141.5,0.9418,0.000054,770.7,104.8,0.3869,0.000003,487.2,104.5,0.4325,0.000042
1579.8,300.3,0.7026,0.000471,1579.8,302.6,0.6815,0.000857,1925.4,209.0,0.4283,0.000056,1925.4,210.0,0.3659,0.000049,4125.7,320.8,0.5801,0.000258,437.4,148.1,0.9413,0.000071,783.0,104.7,0.3868,0.000003,495.0,104.5,0.4322,0.000036
1604.5,304.3,0.6907,0.000492,1604.5,306.8,0.6596,0.000919,1955.5,214.0,0.4266,0.000058,1955.5,215.0,0.3644,0.000053,4190.2,324.6,0.5629,0.000274,444.2,154.7,0.9408,0.000091,795.2,104.7,0.3868,0.000003,502.7,104.4,0.4319,0.000031
1629.1,308.5,0.6783,0.000517,1629.1,311.1,0.6362,0.000970,1985.5,219.0,0.4248,0.000062,1985.5,220.1,0.3627,0.000060,4254.6,328.5,0.5448,0.000288,451.0,161.4,0.9401,0.000115,807.4,104.7,0.3868,0.000003,510.4,104.3,0.4317,0.000026
1653.8,312.6,0.6652,0.000544,1653.8,315.5,0.6118,0.001006,2015.6,224.0,0.4228,0.000069,2015.6,225.2,0.3608,0.000069,4319.1,332.2,0.5257,0.000302,457.9,168.1,0.9392,0.000145,819.7,104.7,0.3867,0.000003,518.2,104.2,0.4315,0.000021
1678.5,316.8,0.6514,0.000573,1678.5,319.7,0.5868,0.001020,2045.7,229.1,0.4206,0.000078,2045.7,230.3,0.3585,0.000081,4383.6,335.9,0.5059,0.000313,464.7,174.9,0.9381,0.000180,831.9,104.7,0.3867,0.000002,525.9,104.3,0.4314,0.000017
1703.2,320.9,0.6369,0.000601,1703.2,324.1,0.5616,0.001011,2075.8,234.0,0.4181,0.000089,2075.8,235.1,0.3559,0.000095,4448.0,339.8,0.4854,0.000320,471.5,181.7,0.9367,0.000219,844.1,104.7,0.3867,0.000002,533.6,105.6,0.4312,0.000015
1727.9,325.2,0.6217,0.000633,1727.9,328.6,0.5369,0.000982,2105.9,239.0,0.4152,0.000103,2105.9,240.1,0.3527,0.000113,4512.5,343.4,0.4649,0.000316,478.4,188.6,0.9351,0.000265,856.4,104.8,0.3866,0.000002,541.4,108.7,0.4311,0.000017
1752.6,329.4,0.6056,0.000670,1752.6,333.3,0.5128,0.001020,2136.0,243.8,0.4119,0.000117,2136.0,245.2,0.3490,0.000131,4576.9,347.4,0.4450,0.000299,485.2,195.4,0.9331,0.000317,868.6,104.9,0.3866,0.000002,549.1,113.6,0.4310,0.000022
1777.2,333.5,0.5886,0.000714,1777.2,338.9,0.4860,0.001141,2166.0,248.9,0.4082,0.000129,2166.0,250.3,0.3449,0.000145,4641.4,350.9,0.4268,0.000264,492.0,202.3,0.9307,0.000380,880.8,104.8,0.3866,0.000002,556.8,119.7,0.4308,0.000029
1801.9,337.6,0.5704,0.000759,1801.9,343.3,0.4584,0.001001,2196.1,253.9,0.4042,0.000137,2196.1,255.3,0.3404,0.000154,4705.9,355.0,0.4112,0.000216,498.9,209.2,0.9278,0.000458,893.1,104.7,0.3866,0.000002,564.6,126.4,0.4305,0.000035
1826.6,341.8,0.5511,0.000809,1826.6,346.2,0.4375,0.000724,2226.2,258.8,0.4000,0.000144,2226.2,260.4,0.3357,0.000159,4770.3,358.7,0.3990,0.000165,505.7,216.1,0.9244,0.000556,905.3,104.7,0.3865,0.000002,572.3,133.5,0.4302,0.000041
1851.3,346.0,0.5304,0.000860,1851.3,349.6,0.4220,0.000564,2256.3,263.9,0.3956,0.000150,2256.3,265.4,0.3308,0.000163,4834.8,362.3,0.3897,0.000124,512.5,223.0,0.9202,0.000678,917.5,104.6,0.3865,0.000002,580.0,140.9,0.4299,0.000044
1876.0,350.2,0.5086,0.000909,1876.0,353.1,0.4091,0.000483,2286.4,269.0,0.3909,0.000157,2286.4,270.4,0.3258,0.000168,4899.3,366.1,0.3826,0.000098,519.4,229.9,0.9151,0.000834,929.8,104.6,0.3865,0.000002,587.8,148.4,0.4296,0.000047
1900.7,354.3,0.4856,0.000949,1900.7,357.0,0.3979,0.000422,2316.5,274.1,0.3861,0.000165,2316.5,275.4,0.3207,0.000173,4963.7,369.9,0.3768,0.000084,526.2,236.7,0.9088,0.001028,942.0,104.6,0.3865,0.000002,595.5,156.0,0.4292,0.000051
1925.4,358.4,0.4620,0.000957,1925.4,360.8,0.3881,0.000376,2346.6,279.0,0.3810,0.000175,2346.6,280.5,0.3154,0.000180,5028.2,373.7,0.3717,0.000076,533.1,243.5,0.9011,0.001256,954.3,104.6,0.3865,0.000002,603.3,163.6,0.4288,0.000058
1950.0,362.7,0.4389,0.000905,1950.0,364.9,0.3792,0.000345,2376.6,283.8,0.3756,0.000184,2376.6,285.5,0.3099,0.000190,5092.7,377.3,0.3669,0.000072,539.9,250.3,0.8917,0.001503,966.5,104.7,0.3864,0.000002,611.0,171.2,0.4283,0.000070
1974.7,366.9,0.4178,0.000790,1974.7,369.0,0.3709,0.000329,2406.7,288.8,0.3699,0.000193,2406.7,290.5,0.3040,0.000201,5157.1,381.0,0.3623,0.000071,546.7,257.2,0.8805,0.001748,978.7,104.7,0.3864,0.000002,618.7,179.0,0.4277,0.000088
1999.4,371.0,0.4002,0.000631,1999.4,373.0,0.3629,0.000324,2436.8,293.7,0.3640,0.000201,2436.8,295.4,0.2977,0.000215,5221.6,384.9,0.3578,0.000069,553.6,264.1,0.8677,0.001974,991.0,104.7,0.3864,0.000002,626.5,186.8,0.4269,0.000111
2024.1,375.0,0.3867,0.000471,2024.1,377.0,0.3549,0.000326,2466.9,298.6,0.3579,0.000208,2466.9,300.5,0.2910,0.000230,5286.0,388.5,0.3534,0.000068,560.4,271.1,0.8535,0.002176,1003.2,104.7,0.3864,0.000002,634.2,194.5,0.4260,0.000138
2048.8,379.0,0.3767,0.000346,2048.8,381.1,0.3468,0.000332,2497.0,303.4,0.3515,0.000214,2497.0,305.5,0.2839,0.000246,5350.5,392.2,0.3491,0.000067,567.2,278.0,0.8380,0.002353,1015.4,104.7,0.3863,0.000001,641.9,202.3,0.4248,0.000167
2073.5,383.0,0.3693,0.000268,2073.5,385.3,0.3385,0.000343,2527.1,308.5,0.3450,0.000221,2527.1,310.6,0.2762,0.000268,5415.0,396.0,0.3448,0.000067,574.1,285.0,0.8214,0.002504,1027.7,104.7,0.3863,0.000002,649.7,210.1,0.4234,0.000197
2098.1,387.2,0.3632,0.000227,2098.1,389.6,0.3298,0.000358,2557.1,313.5,0.3383,0.000227,2557.1,315.8,0.2677,0.000296,5479.4,399.7,0.3405,0.000066,580.9,291.8,0.8038,0.002628,1039.9,104.7,0.3863,0.000001,657.4,217.9,0.4217,0.000228
2122.8,391.4,0.3579,0.000207,2122.8,393.8,0.3208,0.000374,2587.2,318.5,0.3313,0.000232,2587.2,321.0,0.2584,0.000324,5543.9,403.4,0.3362,0.000065,587.7,298.6,0.7855,0.002723,1052.1,104.7,0.3863,0.000001,665.1,225.7,0.4197,0.000266
2147.5,395.6,0.3529,0.000198,2147.5,397.9,0.3113,0.000395,2617.3,323.8,0.3243,0.000235,2617.3,326.2,0.2482,0.000347,5608.4,407.2,0.3320,0.000064,594.6,305.4,0.7665,0.002796,1064.4,104.7,0.3863,0.000001,672.9,233.5,0.4175,0.000319
2172.2,399.5,0.3480,0.000193,2172.2,402.2,0.3013,0.000421,2647.4,329.0,0.3172,0.000237,2647.4,331.4,0.2375,0.000366,5672.8,410.9,0.3280,0.000062,601.4,312.3,0.7472,0.002858,1076.6,104.7,0.3863,0.000002,680.6,241.3,0.4148,0.000401
2196.9,403.5,0.3433,0.000191,2196.9,406.4,0.2905,0.000453,2677.5,334.1,0.3101,0.000238,2677.5,336.7,0.2264,0.000373,5737.3,414.6,0.3241,0.000059,608.2,319.3,0.7275,0.002923,1088.8,104.7,0.3862,0.000002,688.3,249.2,0.4114,0.000523
2221.6,407.7,0.3386,0.000189,2221.6,410.6,0.2789,0.000485,2707.6,339.1,0.3029,0.000241,2707.6,341.9,0.2152,0.000370,5801.8,418.5,0.3204,0.000057,615.1,326.3,0.7073,0.003004,1101.1,104.8,0.3862,0.000001,696.1,257.1,0.4068,0.000681
2246.2,411.8,0.3340,0.000188,2246.2,415.0,0.2665,0.000515,2737.6,344.1,0.2955,0.000252,2737.6,347.2,0.2041,0.000363,5866.2,422.2,0.3168,0.000053,621.9,333.3,0.6864,0.003110,1113.3,104.8,0.3862,0.000001,703.8,265.0,0.4009,0.000851
2270.9,415.9,0.3293,0.000187,2270.9,419.1,0.2535,0.000545,2767.7,349.1,0.2876,0.000276,2767.7,352.4,0.1937,0.000324,5930.7,425.9,0.3134,0.000052,628.7,340.3,0.6646,0.003252,1125.5,104.7,0.3862,0.000001,711.5,273.0,0.3936,0.001006
2295.6,420.0,0.3247,0.000185,2295.6,423.3,0.2396,0.000568,2797.8,354.4,0.2788,0.000315,2797.8,357.5,0.1848,0.000264,5995.2,429.8,0.3102,0.000049,635.6,347.2,0.6417,0.003450,1137.8,104.7,0.3862,0.000001,719.3,280.9,0.3852,0.001127
2320.3,424.1,0.3202,0.000180,2320.3,427.5,0.2257,0.000563,2827.9,359.3,0.2686,0.000365,2827.9,362.3,0.1779,0.000199,6059.6,433.4,0.3070,0.000048,642.4,354.1,0.6174,0.003726,1150.0,104.6,0.3861,0.000002,727.0,288.9,0.3760,0.001219
2345.0,428.2,0.3158,0.000174,2345.0,431.7,0.2118,0.000572,2858.0,364.5,0.2569,0.000406,2858.0,367.1,0.1726,0.000156,6124.1,437.3,0.3040,0.000045,649.2,361.1,0.5913,0.004093,1162.2,104.6,0.3861,0.000001,734.7,296.9,0.3663,0.001300
2369.7,432.4,0.3117,0.000165,2369.7,435.9,0.1973,0.000605,2888.1,369.4,0.2445,0.000410,2888.1,371.9,0.1683,0.000133,6188.5,441.0,0.3011,0.000044,656.1,367.9,0.5624,0.004516,1174.5,104.7,0.3861,0.000001,742.5,305.0,0.3559,0.001392
2394.3,436.5,0.3077,0.000156,2394.3,440.1,0.1817,0.000662,2918.1,374.4,0.2328,0.000362,2918.1,376.8,0.1645,0.000124,6253.0,444.8,0.2984,0.000043,662.9,374.8,0.5305,0.004889,1186.7,104.8,0.3861,0.000001,750.2,313.2,0.3447,0.001513
2419.0,440.6,0.3040,0.000146,2419.0,444.7,0.1644,0.000708,2948.2,379.5,0.2231,0.000280,2948.2,381.8,0.1608,0.000121,6317.5,448.6,0.2957,0.000041,669.7,381.8,0.4959,0.005055,1198.9,104.8,0.3861,0.000001,757.9,321.4,0.3324,0.001685
2443.7,444.7,0.3005,0.000140,2443.7,449.0,0.1457,0.000903,2978.3,384.3,0.2159,0.000205,2978.3,386.8,0.1571,0.000121,6381.9,452.2,0.2931,0.000039,676.6,388.7,0.4606,0.004868,1211.2,104.6,0.3861,0.000001,765.7,329.7,0.3187,0.001923
2468.4,448.8,0.2970,0.000134,2468.4,456.0,0.1172,0.001508,3008.4,389.3,0.2104,0.000160,3008.4,391.8,0.1535,0.000122,6446.4,456.0,0.2906,0.000038,683.4,395.6,0.4278,0.004290,1223.4,104.6,0.3861,0.000001,773.4,338.1,0.3030,0.002223
2493.1,452.8,0.2939,0.000126,2493.1,457.6,0.0851,0.000647,3038.5,394.4,0.2060,0.000139,3038.5,396.8,0.1497,0.000126,6510.9,459.6,0.2883,0.000035,690.2,402.5,0.4009,0.003436,1235.6,104.7,0.3861,0.000001,781.1,346.7,0.2850,0.002538
2517.8,457.1,0.2908,0.000120,2517.8,459.2,0.0783,0.000244,3068.6,399.5,0.2019,0.000130,3068.6,401.9,0.1459,0.000132,6575.3,463.5,0.2860,0.000034,697.1,409.4,0.3811,0.002533,1247.9,104.7,0.3860,0.000002,788.9,355.4,0.2644,0.002763
2542.5,461.2,0.2879,0.000116,2542.5,463.5,0.0711,0.000277,3098.7,404.5,0.1981,0.000125,3098.7,407.0,0.1417,0.000141,6639.8,467.3,0.2839,0.000032,703.9,416.3,0.3676,0.001797,1260.1,104.7,0.3860,0.000001,796.6,364.1,0.2420,0.002763
2567.1,465.3,0.2851,0.000110,2567.1,467.4,0.0645,0.000244,3128.7,409.4,0.1944,0.000121,3128.7,412.1,0.1374,0.000150,6704.3,471.1,0.2818,0.000031,710.7,423.2,0.3579,0.001329,1272.3,104.6,0.3860,-0.000002,804.3,372.8,0.2205,0.002466
2591.8,469.5,0.2824,0.000106,2591.8,471.4,0.0592,0.000191,3158.8,414.4,0.1908,0.000119,3158.8,417.3,0.1327,0.000162,6768.7,475.1,0.2799,0.000030,717.6,430.1,0.3499,0.001109,1284.6,106.2,0.3861,-0.000004,812.1,381.7,0.2031,0.001964
2616.5,473.6,0.2799,0.000100,2616.5,475.2,0.0551,0.000142,3188.9,419.5,0.1873,0.000116,3188.9,422.3,0.1276,0.000175,6833.2,478.8,0.2780,0.000028,724.4,437.1,0.3424,0.001047,1296.8,112.4,0.3861,-0.000002,819.8,391.1,0.1907,0.001460
2641.2,477.8,0.2775,0.000095,2641.2,479.1,0.0521,0.000102,3219.0,424.5,0.1838,0.000112,3219.0,427.5,0.1221,0.000191,6897.6,482.6,0.2762,0.000028,731.2,444.0,0.3350,0.001049,1309.0,122.1,0.3861,0.000002,827.5,400.3,0.1816,0.001103
2665.9,482.0,0.2752,0.000090,2665.9,483.0,0.0500,0.000072,3249.1,429.6,0.1805,0.000108,3249.1,432.8,0.1161,0.000208,6962.1,486.4,0.2745,0.000027,738.1,451.0,0.3276,0.001053,1321.3,133.3,0.3860,0.000008,835.3,408.6,0.1740,0.000917
2690.6,486.2,0.2731,0.000085,2690.6,487.2,0.0485,0.000050,3279.2,434.6,0.1774,0.000102,3279.2,438.0,0.1096,0.000225,7026.6,490.4,0.2728,0.000026,744.9,457.9,0.3203,0.001029,1333.5,145.1,0.3859,0.000018,843.0,416.1,0.1671,0.000862
2715.2,490.2,0.2710,0.000083,2715.2,491.3,0.0475,0.000034,3309.2,439.6,0.1744,0.000096,3309.2,443.1,0.1026,0.000238,7091.0,494.3,0.2711,0.000026,751.7,464.9,0.3134,0.000974,1345.7,157.2,0.3856,0.000033,850.7,423.6,0.1603,0.000894
2739.9,494.3,0.2690,0.000077,2739.9,495.3,0.0468,0.000023,3339.3,444.6,0.1716,0.000089,3339.3,448.3,0.0953,0.000251,7155.5,498.0,0.2694,0.000026,758.6,471.9,0.3070,0.000898,1358.0,169.4,0.3850,0.000058,858.5,431.5,0.1530,0.000986
2764.6,498.5,0.2672,0.000074,2764.6,499.4,0.0463,0.000015,3369.4,449.6,0.1690,0.000083,3369.4,453.6,0.0874,0.000277,7220.0,501.9,0.2678,0.000024,765.4,478.9,0.3011,0.000814,1370.2,181.6,0.3841,0.000092,866.2,440.0,0.1450,0.001115
2789.3,502.8,0.2654,0.000073,2789.3,503.6,0.0460,0.000009,3399.5,454.6,0.1666,0.000078,3399.5,459.3,0.0780,0.000348,7284.4,505.6,0.2664,0.000021,772.2,485.9,0.2959,0.000735,1382.4,193.8,0.3828,0.000131,873.9,448.7,0.1359,0.001254
2814.0,506.9,0.2636,0.000071,2814.0,507.7,0.0459,0.000006,3429.6,459.7,0.1643,0.000073,3429.6,465.9,0.0650,0.000674,7348.9,509.6,0.2651,0.000020,779.1,492.9,0.2912,0.000667,1394.7,206.1,0.3809,0.000170,881.7,457.6,0.1256,0.001368
2838.7,510.9,0.2619,0.000069,2838.7,511.9,0.0457,0.000005,3459.7,464.7,0.1622,0.000068,3459.7,473.3,0.0406,0.000585,7413.4,513.6,0.2638,0.000018,785.9,499.9,0.2868,0.000609,1406.9,218.6,0.3785,0.000210,889.4,466.4,0.1145,0.001424
2863.3,515.2,0.2602,0.000069,2863.3,515.9,0.0456,0.000004,3489.7,469.8,0.1602,0.000064,3489.7,474.2,0.0313,0.000222,7477.8,517.4,0.2627,0.000018,792.7,506.9,0.2828,0.000559,1419.1,231.0,0.3756,0.000272,897.1,474.7,0.1034,0.001417
2888.0,519.4,0.2585,0.000065,2888.0,519.8,0.0455,0.000003,3519.8,474.9,0.1584,0.000060,3519.8,478.3,0.0255,0.000161,7542.3,521.4,0.2616,0.000017,799.6,513.9,0.2791,0.000517,1431.4,243.3,0.3717,0.000392,904.9,482.6,0.0926,0.001375
2912.7,523.7,0.2570,0.000058,2912.7,524.1,0.0455,0.000003,3549.9,480.0,0.1566,0.000056,3549.9,482.8,0.0212,0.000119,7606.8,525.1,0.2605,0.000016,806.4,520.8,0.2757,0.000481,1443.6,255.6,0.3660,0.000588,912.6,490.3,0.0823,0.001329
2937.4,527.8,0.2556,0.000054,2937.4,528.1,0.0454,0.000002,3580.0,485.0,0.1550,0.000052,3580.0,487.5,0.0183,0.000082,7671.2,529.0,0.2595,0.000016,813.2,527.8,0.2726,0.000451,1455.8,268.1,0.3574,0.000817,920.3,498.0,0.0723,0.001293
2962.1,531.8,0.2543,0.000050,2962.1,532.2,0.0453,0.000003,3610.1,490.1,0.1534,0.000050,3610.1,492.3,0.0162,0.000054,7735.7,533.0,0.2585,0.000015,820.1,534.8,0.2696,0.000426,1468.1,280.5,0.3459,0.000999,928.1,505.6,0.0625,0.001261
2986.8,536.0,0.2532,0.000047,2986.8,536.3,0.0453,0.000002,3640.2,495.1,0.1520,0.000048,3640.2,497.2,0.0150,0.000033,7800.1,536.9,0.2575,0.000015,826.9,541.8,0.2668,0.000404,1480.3,292.9,0.3329,0.001109,935.8,513.2,0.0529,0.001220
3011.4,540.3,0.2520,0.000045,3011.4,540.4,0.0452,0.000002,3670.2,500.1,0.1505,0.000047,3670.2,502.1,0.0141,0.000022,7864.6,540.7,0.2566,0.000014,833.7,548.9,0.2640,0.000380,1492.5,305.4,0.3188,0.001192,943.5,520.6,0.0437,0.001144
3036.1,544.5,0.2510,0.000042,3036.1,544.5,0.0452,0.000002,3700.3,505.2,0.1492,0.000046,3700.3,507.1,0.0136,0.000016,7929.1,544.7,0.2557,0.000013,840.6,556.2,0.2615,0.000351,1504.8,318.1,0.3035,0.001320,951.3,527.8,0.0352,0.001009
3060.8,548.7,0.2499,0.000041,3060.8,548.4,0.0451,0.000003,3730.4,510.4,0.1478,0.000046,3730.4,511.9,0.0132,0.000012,7993.5,548.4,0.2548,0.000013,847.4,563.6,0.2592,0.000319,1517.0,331.0,0.2863,0.001576,959.0,534.2,0.0278,0.000803
3085.5,553.0,0.2489,0.000040,3085.5,552.4,0.0450,0.000003,3760.5,515.5,0.1464,0.000045,3760.5,517.2,0.0128,0.000009,8058.0,552.5,0.2540,0.000013,854.2,571.1,0.2572,0.000290,1529.2,344.1,0.2655,0.001974,966.7,539.6,0.0225,0.000556
3110.2,557.3,0.2480,0.000039,3110.2,556.7,0.0450,0.000002,3790.6,520.5,0.1451,0.000043,3790.6,522.2,0.0126,0.000006,8122.5,556.2,0.2531,0.000013,861.1,578.6,0.2553,0.000267,1541.5,357.4,0.2391,0.002284,974.5,544.3,0.0193,0.000326
3134.9,561.9,0.2470,0.000039,3134.9,560.9,0.0449,0.000003,3820.7,525.8,0.1439,0.000038,3820.7,527.2,0.0124,0.000005,8186.9,560.3,0.2523,0.000013,867.9,586.1,0.2535,0.000251,1553.7,370.6,0.2097,0.002117,982.2,549.8,0.0177,0.000162
3159.6,566.3,0.2460,0.000039,3159.6,565.4,0.0448,0.000003,3850.8,530.8,0.1428,0.000033,3850.8,532.3,0.0123,0.000003,8251.4,564.4,0.2515,0.000012,874.8,593.6,0.2518,0.000238,1566.0,383.7,0.1869,0.001478,990.0,556.3,0.0170,0.000070
3184.2,571.0,0.2451,0.000036,3184.2,569.7,0.0448,0.000003,3880.8,536.0,0.1419,0.000030,3880.8,537.1,0.0122,0.000002,8315.9,568.5,0.2507,0.000012,881.6,600.9,0.2502,0.000227,1578.2,396.4,0.1742,0.000900,997.7,563.6,0.0166,0.000029
3208.9,575.4,0.2442,0.000037,3208.9,573.9,0.0447,0.000005,3910.9,541.0,0.1410,0.000028,3910.9,542.2,0.0122,0.000002,8380.3,572.6,0.2499,0.000012,888.4,608.1,0.2487,0.000218,1590.4,409.2,0.1654,0.000693,1005.4,571.3,0.0164,0.000017
3233.6,580.0,0.2433,0.000036,3233.6,578.4,0.0446,0.000005,3941.0,546.2,0.1402,0.000026,3941.0,547.1,0.0121,0.000001,8444.8,576.8,0.2491,0.000012,895.3,615.2,0.2473,0.000209,1602.7,422.1,0.1565,0.000733,1013.2,579.4,0.0162,0.000014
3258.3,584.6,0.2425,0.000035,3258.3,582.6,0.0444,0.000006,3971.1,551.3,0.1394,0.000025,3971.1,552.0,0.0121,0.000002,8509.2,581.0,0.2484,0.000012,902.1,622.4,0.2459,0.000200,1614.9,435.2,0.1466,0.000843,1020.9,587.6,0.0161,0.000012
3283.0,589.1,0.2416,0.000035,3283.0,587.0,0.0443,0.000007,4001.2,556.5,0.1386,0.000024,4001.2,557.1,0.0121,0.000002,8573.7,585.2,0.2477,0.000011,908.9,629.5,0.2445,0.000192,1627.1,448.2,0.1353,0.000970,1028.6,595.6,0.0160,0.000011
3307.7,593.6,0.2408,0.000032,3307.7,591.3,0.0441,0.000008,4031.3,561.9,0.1379,0.000024,4031.3,562.5,0.0120,0.000002,8638.2,589.5,0.2469,0.000012,915.8,636.8,0.2432,0.000184,1639.4,461.5,0.1228,0.001167,1036.4,603.3,0.0159,0.000009
3332.3,598.1,0.2400,0.000033,3332.3,595.7,0.0439,0.000009,4061.3,567.5,0.1372,0.000023,4061.3,567.7,0.0119,0.000003,8702.6,593.6,0.2462,0.000011,922.6,644.1,0.2420,0.000178,1651.6,475.8,0.1073,0.001428,1044.1,610.9,0.0158,0.000007
3357.0,602.3,0.2392,0.000033,3357.0,599.7,0.0436,0.000011,4091.4,572.8,0.1365,0.000023,4091.4,572.9,0.0118,0.000003,8767.1,597.4,0.2455,0.000012,929.4,651.7,0.2408,0.000174,1663.8,490.8,0.0880,0.001578,1051.8,618.4,0.0158,0.000007
3381.7,606.6,0.2384,0.000031,3381.7,603.7,0.0434,0.000011,4121.5,578.3,0.1358,0.000023,4121.5,578.2,0.0117,0.000004,8831.6,601.5,0.2447,0.000012,936.3,659.3,0.2396,0.000174,1676.1,504.2,0.0688,0.001526,1059.6,625.9,0.0157,0.000009
3406.4,610.9,0.2376,0.000032,3406.4,607.7,0.0431,0.000013,4151.6,583.8,0.1351,0.000022,4151.6,583.6,0.0116,0.000005,8896.0,605.4,0.2439,0.000012,943.1,667.0,0.2384,0.000178,1688.3,516.2,0.0514,0.001336,1067.3,633.5,0.0156,0.000014
3431.1,615.1,0.2368,0.000031,3431.1,611.8,0.0428,0.000014,4181.7,589.5,0.1345,0.000021,4181.7,588.7,0.0114,0.000005,8960.5,609.3,0.2431,0.000013,949.9,674.8,0.2372,0.000185,1700.5,526.9,0.0364,0.001029,1075.0,641.2,0.0155,0.000021
3455.8,619.3,0.2361,0.000031,3455.8,615.9,0.0424,0.000015,4211.8,595.2,0.1338,0.000022,4211.8,594.1,0.0113,0.000005,9025.0,613.1,0.2423,0.000013,956.8,682.6,0.2359,0.000192,1712.8,535.8,0.0261,0.000658,1082.8,649.1,0.0153,0.000029
3480.4,623.7,0.2353,0.000033,3480.4,620.0,0.0420,0.000015,4241.8,600.4,0.1332,0.000021,4241.8,599.2,0.0111,0.000006,9089.4,616.9,0.2415,0.000013,963.6,690.2,0.2346,0.000195,1725.0,544.5,0.0204,0.000346,1090.5,657.2,0.0150,0.000039
3505.1,628.0,0.2344,0.000034,3505.1,623.9,0.0416,0.000016,4271.9,605.6,0.1326,0.000021,4271.9,604.1,0.0109,0.000007,9153.9,620.8,0.2406,0.000013,970.4,697.1,0.2332,0.000190,1737.2,554.5,0.0176,0.000151,1098.2,665.3,0.0147,0.000049
3529.8,632.3,0.2336,0.000034,3529.8,627.8,0.0412,0.000018,4302.0,610.7,0.1320,0.000021,4302.0,609.1,0.0107,0.000007,9218.4,624.7,0.2398,0.000013,977.3,702.2,0.2320,0.000174,1749.5,566.0,0.0164,0.000054,1106.0,673.5,0.0143,0.000059
3554.5,636.6,0.2327,0.000035,3554.5,631.7,0.0408,0.000018,4332.1,615.8,0.1313,0.000020,4332.1,613.9,0.0105,0.000008,9282.8,628.7,0.2390,0.000012,984.1,705.2,0.2308,0.000150,1761.7,578.4,0.0160,0.000018,1113.7,681.7,0.0138,0.000066
3579.2,640.8,0.2319,0.000034,3579.2,635.8,0.0404,0.000018,4362.2,621.1,0.1308,0.000019,4362.2,618.8,0.0103,0.000007,9347.3,632.6,0.2382,0.000012,990.9,706.6,0.2299,0.000123,1773.9,591.3,0.0158,0.000009,1121.4,688.8,0.0133,0.000067
3603.9,645.1,0.2311,0.000034,3603.9,639.8,0.0399,0.000019,4392.3,626.3,0.1302,0.000019,4392.3,623.6,0.0101,0.000008,9411.7,636.5,0.2374,0.000012,997.8,707.5,0.2292,0.000099,1786.2,603.6,0.0156,0.000008,1129.2,693.6,0.0128,0.000060
3628.5,649.3,0.2302,0.000035,3628.5,643.8,0.0394,0.000017,4422.3,631.4,0.1296,0.000019,4422.3,628.5,0.0098,0.000008,9476.2,640.3,0.2367,0.000011,1004.6,708.2,0.2286,0.000081,1798.4,615.7,0.0155,0.000008,1136.9,695.9,0.0123,0.000044
3653.2,653.9,0.2293,0.000035,3653.2,647.9,0.0390,0.000016,4452.4,636.7,0.1290,0.000020,4452.4,633.5,0.0096,0.000007,9540.7,644.0,0.2360,0.000011,1011.4,708.8,0.2281,0.000068,1810.6,627.7,0.0154,0.000011,1144.6,697.0,0.0121,0.000026
3677.9,658.2,0.2285,0.000032,3677.9,652.2,0.0387,0.000014,4482.5,641.9,0.1284,0.000019,4482.5,638.4,0.0094,0.000005,9605.1,647.7,0.2353,0.000010,1018.3,709.2,0.2276,0.000059,1822.9,639.8,0.0153,0.000019,1152.4,697.6,0.0120,0.000011
3702.6,662.6,0.2278,0.000031,3702.6,656.4,0.0383,0.000014,4512.6,647.1,0.1278,0.000020,4512.6,643.2,0.0093,0.000003,9669.6,651.5,0.2347,0.000010,1025.1,709.6,0.2273,0.000054,1835.1,652.3,0.0150,0.000031,1160.1,698.0,0.0119,0.000003
3727.3,667.1,0.2270,0.000030,3727.3,660.7,0.0380,0.000013,4542.7,652.3,0.1272,0.000020,4542.7,648.2,0.0093,0.000001,9734.1,655.5,0.2341,0.000010,1031.9,710.7,0.2269,0.000053,1847.3,665.0,0.0145,0.000042,1167.8,698.3,0.0119,0.000000
3752.0,671.6,0.2263,0.000028,3752.0,664.8,0.0377,0.000013,4572.8,657.7,0.1266,0.000020,4572.8,653.3,0.0093,0.000000,9798.5,659.6,0.2334,0.000010,1038.8,713.7,0.2265,0.000056,1859.6,678.1,0.0140,0.000051,1175.6,698.7,0.0119,-0.000001
3776.7,676.0,0.2256,0.000027,3776.7,669.1,0.0374,0.000012,4602.9,663.2,0.1261,0.000019,4602.9,658.4,0.0092,0.000000,9863.0,663.6,0.2328,0.000009,1045.6,718.6,0.2261,0.000062,1871.8,689.9,0.0133,0.000052,1183.3,700.2,0.0119,0.000000
3801.3,680.6,0.2250,0.000028,3801.3,673.2,0.0371,0.000012,4632.9,668.6,0.1255,0.000019,4632.9,663.6,0.0092,0.000001,9927.5,667.5,0.2322,0.000009,1052.4,724.8,0.2257,0.000071,1884.0,696.0,0.0127,0.000039,1191.0,704.0,0.0119,0.000001
3826.0,684.9,0.2243,0.000028,3826.0,677.6,0.0368,0.000010,4663.0,674.1,0.1249,0.000019,4663.0,668.8,0.0092,0.000000,9991.9,671.4,0.2316,0.000009,1059.3,731.7,0.2252,0.000080,1896.3,697.8,0.0123,0.000019,1198.8,709.9,0.0119,0.000001
3850.7,689.1,0.2236,0.000026,3850.7,681.9,0.0366,0.000008,4693.1,679.4,0.1243,0.000019,4693.1,673.9,0.0092,0.000001,10056.4,675.3,0.2311,0.000009,1066.1,739.1,0.2246,0.000088,1908.5,698.7,0.0122,0.000005,1206.5,716.8,0.0119,0.000002
3875.4,693.4,0.2230,0.000026,3875.4,686.0,0.0364,0.000007,4723.2,684.7,0.1238,0.000019,4723.2,679.0,0.0092,0.000000,10120.8,679.3,0.2305,0.000009,1072.9,746.5,0.2240,0.000094,1920.7,699.2,0.0122,0.000000,1214.2,723.9,0.0119,0.000002
3900.1,697.5,0.2223,0.000025,3900.1,690.1,0.0362,0.000007,4753.3,689.9,0.1232,0.000018,4753.3,684.0,0.0092,0.000001,10185.3,683.3,0.2299,0.000009,1079.8,753.3,0.2233,0.000096,1933.0,700.8,0.0122,0.000000,1222.0,731.2,0.0119,0.000002
3924.8,701.6,0.2217,0.000025,3924.8,694.1,0.0360,0.000007,4783.4,694.8,0.1227,0.000019,4783.4,689.1,0.0092,0.000000,10249.8,687.1,0.2294,0.000009,1086.6,758.3,0.2226,0.000092,1945.2,707.7,0.0122,0.000001,1229.7,738.2,0.0118,0.000002
3949.4,705.6,0.2211,0.000023,3949.4,697.8,0.0359,0.000007,4813.4,699.9,0.1221,0.000018,4813.4,694.0,0.0091,0.000001,10314.2,690.8,0.2289,0.000009,1093.4,761.2,0.2220,0.000084,1957.4,718.3,0.0122,0.000001,1237.4,743.4,0.0118,0.000001
3974.1,706.7,0.2206,0.000018,3974.1,698.8,0.0357,0.000005,4843.5,705.1,0.1215,0.000019,4843.5,698.9,0.0091,0.000001,10378.7,694.5,0.2283,0.000008,1100.3,762.4,0.2215,0.000073,1969.7,729.7,0.0122,0.000002,1245.2,746.0,0.0118,0.000001
3998.8,706.6,0.2202,0.000017,3998.8,698.8,0.0356,0.000003,4873.6,706.9,0.1210,0.000016,4873.6,700.6,0.0091,0.000000,10443.2,698.1,0.2278,0.000008,1107.1,763.0,0.2211,0.000062,1981.9,740.6,0.0121,0.000002,1252.9,747.0,0.0118,0.000001
4023.5,717.0,0.2197,0.000027,4023.5,709.1,0.0355,0.000005,4903.7,707.1,0.1206,0.000014,4903.7,700.9,0.0091,0.000000,10507.6,701.8,0.2272,0.000008,1113.9,763.4,0.2207,0.000053,1994.1,746.4,0.0121,0.000002,1260.6,747.5,0.0118,0.000001
4048.2,740.9,0.2188,0.000047,4048.2,731.3,0.0354,0.000008,4933.8,726.6,0.1200,0.000028,4933.8,720.0,0.0091,0.000001,10572.1,705.5,0.2268,0.000007,1120.8,763.7,0.2203,0.000046,2006.4,747.9,0.0121,0.000001,1268.4,747.9,0.0118,0.000001
4072.9,755.9,0.2175,0.000047,4072.9,745.2,0.0352,0.000007,4963.9,753.8,0.1189,0.000041,4963.9,744.9,0.0091,0.000002,10636.6,706.8,0.2263,0.000010,1127.6,764.0,0.2200,0.000042,2018.6,748.6,0.0121,0.000000,1276.1,748.2,0.0118,0.000001
4097.5,758.0,0.2166,0.000034,4097.5,746.9,0.0350,0.000005,4993.9,758.0,0.1178,0.000031,4993.9,748.7,0.0090,0.000001,10701.0,754.4,0.2249,0.000028,1134.4,764.2,0.2198,0.000040,2030.8,749.1,0.0121,0.000000,1283.8,748.6,0.0118,0.000001
4114.0,758.7,0.2161,0.000031,4114.0,747.6,0.0349,0.000005,5014.0,758.8,0.1172,0.000027,5014.0,749.5,0.0090,0.000000,10744.0,757.4,0.2239,0.000023,1139.0,764.3,0.2196,0.000039,2039.0,749.3,0.0121,0.000000,1289.0,748.8,0.0118,0.000001