File: Verification/Pyrolysis/tga_analysis_tga.csv
s,C,g/g,1/s,W/g,W/g
Time,Temp,Mass,MLR,MCC,DSC
 12, 21.0049, 0.999627, 3.16912e-05, 5.91431e-22, 0.194464
 24, 22.0039, 0.999239, 3.29185e-05, 8.51348e-22, 0.197713
 36, 23.0041, 0.998837, 3.41764e-05, 1.22197e-21, 0.192736
 48, 24.0041, 0.998419, 3.54666e-05, 1.74982e-21, 0.198983
 60, 25.0041, 0.997985, 3.67887e-05, 2.49961e-21, 0.201216
 72, 26.0041, 0.997535, 3.81427e-05, 3.56219e-21, 0.204684
 84, 27.0041, 0.997069, 3.95282e-05, 5.0645e-21, 0.207935
 96, 28.0041, 0.996587, 4.0945e-05, 7.18358e-21, 0.211325
 108, 29.0041, 0.996086, 4.23926e-05, 1.01658e-20, 0.214771
 120, 30.0041, 0.995569, 4.38706e-05, 1.43531e-20, 0.218291
 132, 31.004, 0.995033, 4.53784e-05, 2.02192e-20, 0.221878
 144, 32.004, 0.994479, 4.69153e-05, 2.8419e-20, 0.225532
 156, 33.004, 0.993907, 4.84806e-05, 3.98554e-20, 0.229251
 168, 34.004, 0.993316, 5.00734e-05, 5.57711e-20, 0.233032
 180, 35.004, 0.992705, 5.16928e-05, 7.78726e-20, 0.236872
 192, 36.004, 0.992075, 5.33376e-05, 1.08498e-19, 0.240769
 204, 37.004, 0.991425, 5.50067e-05, 1.50845e-19, 0.24472
 216, 38.004, 0.990754, 5.66987e-05, 2.09275e-19, 0.248722
 228, 39.004, 0.990064, 5.84123e-05, 2.89731e-19, 0.25277
 240, 40.004, 0.989352, 6.01458e-05, 4.00286e-19, 0.256861
 252, 41.004, 0.98862, 6.18975e-05, 5.51888e-19, 0.26099
 264, 42.004, 0.987866, 6.36657e-05, 7.59359e-19, 0.265153
 276, 43.004, 0.987092, 6.54484e-05, 1.04272e-18, 0.269345
 288, 44.004, 0.986295, 6.72435e-05, 1.42895e-18, 0.27356
 300, 45.004, 0.985478, 6.90487e-05, 1.95437e-18, 0.277793
 312, 46.004, 0.984638, 7.08618e-05, 2.66776e-18, 0.282038
 324, 47.004, 0.983777, 7.26802e-05, 3.63446e-18, 0.286289
 336, 48.004, 0.982894, 7.45012e-05, 4.94194e-18, 0.290539
 348, 49.004, 0.981988, 7.6322e-05, 6.70698e-18, 0.29478
 360, 50.004, 0.981062, 7.81399e-05, 9.08521e-18, 0.299006
 372, 51.004, 0.980113, 7.99516e-05, 1.22837e-17, 0.30321
 384, 52.004, 0.979143, 8.1754e-05, 1.65775e-17, 0.307382
 396, 53.004, 0.978151, 8.35437e-05, 2.23311e-17, 0.311515
 408, 54.004, 0.977138, 8.53174e-05, 3.00269e-17, 0.315601
 420, 55.004, 0.976103, 8.70714e-05, 4.0302e-17, 0.319629
 432, 56.004, 0.975048, 8.8802e-05, 5.39965e-17, 0.323592
 444, 57.004, 0.973972, 9.05055e-05, 7.22163e-17, 0.32748
 456, 58.004, 0.972876, 9.21779e-05, 9.64146e-17, 0.331283
 468, 59.004, 0.971759, 9.38152e-05, 1.28497e-16, 0.334991
 480, 60.004, 0.970624, 9.54133e-05, 1.70961e-16, 0.338594
 492, 61.004, 0.96947, 9.69682e-05, 2.27069e-16, 0.342082
 504, 62.004, 0.968297, 9.84755e-05, 3.0108e-16, 0.345444
 516, 63.004, 0.967106, 9.99309e-05, 3.98545e-16, 0.348671
 528, 64.004, 0.965899, 0.00010133, 5.26685e-16, 0.351751
 540, 65.004, 0.964674, 0.000102669, 6.94878e-16, 0.354674
 552, 66.004, 0.963435, 0.000103943, 9.15284e-16, 0.357429
 564, 67.004, 0.96218, 0.000105148, 1.20365e-15, 0.360006
 576, 68.004, 0.960911, 0.00010628, 1.58033e-15, 0.362394
 588, 69.004, 0.959629, 0.000107334, 2.07158e-15, 0.364583
 600, 70.004, 0.958335, 0.000108306, 2.71127e-15, 0.366563
 612, 71.004, 0.95703, 0.000109192, 3.54294e-15, 0.368324
 624, 72.004, 0.955715, 0.000109988, 4.62255e-15, 0.369856
 636, 73.004, 0.954391, 0.00011069, 6.02188e-15, 0.37115
 648, 74.004, 0.953059, 0.000111295, 7.83287e-15, 0.372198
 660, 75.004, 0.95172, 0.000111799, 1.01731e-14, 0.37299
 672, 76.004, 0.950376, 0.000112199, 1.31928e-14, 0.373519
 684, 77.004, 0.949028, 0.000112491, 1.70834e-14, 0.373778
 696, 78.004, 0.947677, 0.000112672, 2.20888e-14, 0.37376
 708, 79.004, 0.946324, 0.000112741, 2.85192e-14, 0.373459
 720, 80.004, 0.944971, 0.000112695, 3.67683e-14, 0.372869
 732, 81.004, 0.94362, 0.000112532, 4.73354e-14, 0.371986
 744, 82.004, 0.942271, 0.000112249, 6.0853e-14, 0.370807
 756, 83.004, 0.940926, 0.000111847, 7.81204e-14, 0.369328
 768, 84.004, 0.939587, 0.000111323, 1.00147e-13, 0.367548
 780, 85.004, 0.938255, 0.000110678, 1.28207e-13, 0.365466
 792, 86.004, 0.936932, 0.000109911, 1.63903e-13, 0.363083
 804, 87.004, 0.935618, 0.000109022, 2.09253e-13, 0.360398
 816, 88.004, 0.934316, 0.000108013, 2.66788e-13, 0.357415
 828, 89.004, 0.933026, 0.000106883, 3.39688e-13, 0.354137
 840, 90.004, 0.931751, 0.000105636, 4.31931e-13, 0.350568
 852, 91.004, 0.930492, 0.000104273, 5.48501e-13, 0.346715
 864, 92.004, 0.929249, 0.000102796, 6.95618e-13, 0.342583
 876, 93.004, 0.928025, 0.000101209, 8.81051e-13, 0.338181
 888, 94.004, 0.926821, 9.9514e-05, 1.11448e-12, 0.333517
 900, 95.004, 0.925637, 9.77161e-05, 1.40796e-12, 0.328603
 912, 96.004, 0.924476, 9.58191e-05, 1.77646e-12, 0.323448
 924, 97.004, 0.923338, 9.38278e-05, 2.2386e-12, 0.318065
 936, 98.004, 0.922225, 9.17472e-05, 2.81745e-12, 0.312468
 948, 99.004, 0.921137, 8.95829e-05, 3.5416e-12, 0.306669
 960, 100.004, 0.920075, 8.73407e-05, 4.44642e-12, 0.300686
 972, 101.004, 0.919041, 8.50267e-05, 5.57562e-12, 0.294532
 984, 102.004, 0.918035, 8.26476e-05, 6.98316e-12, 0.288225
 996, 103.004, 0.917058, 8.02101e-05, 8.73556e-12, 0.281782
 1008, 104.004, 0.916111, 7.77211e-05, 1.09148e-11, 0.275221
 1020, 105.004, 0.915193, 7.51878e-05, 1.36215e-11, 0.268559
 1032, 106.004, 0.914306, 7.26177e-05, 1.69797e-11, 0.261817
 1044, 107.004, 0.913451, 7.00182e-05, 2.11412e-11, 0.255011
 1056, 108.004, 0.912626, 6.7397e-05, 2.62925e-11, 0.248162
 1068, 109.004, 0.911834, 6.47615e-05, 3.26615e-11, 0.241288
 1080, 110.004, 0.911072, 6.21193e-05, 4.05275e-11, 0.234409
 1092, 111.004, 0.910343, 5.94781e-05, 5.02315e-11, 0.227544
 1104, 112.004, 0.909645, 5.68452e-05, 6.21896e-11, 0.22071
 1116, 113.004, 0.908979, 5.42279e-05, 7.69093e-11, 0.213927
 1128, 114.004, 0.908344, 5.16334e-05, 9.50088e-11, 0.207211
 1140, 115.004, 0.90774, 4.90684e-05, 1.1724e-10, 0.200581
 1152, 116.004, 0.907166, 4.65396e-05, 1.44517e-10, 0.194051
 1164, 117.004, 0.906623, 4.40532e-05, 1.77949e-10, 0.187638
 1176, 118.004, 0.906109, 4.16152e-05, 2.18882e-10, 0.181357
 1188, 119.004, 0.905624, 3.92311e-05, 2.68946e-10, 0.175221
 1200, 120.004, 0.905168, 3.6906e-05, 3.30116e-10, 0.169243
 1212, 121.004, 0.904738, 3.46448e-05, 4.04777e-10, 0.163434
 1224, 122.004, 0.904336, 3.24515e-05, 4.95811e-10, 0.157805
 1236, 123.004, 0.90396, 3.03301e-05, 6.06698e-10, 0.152364
 1248, 124.004, 0.903608, 2.82838e-05, 7.41631e-10, 0.147121
 1260, 125.004, 0.903281, 2.63154e-05, 9.05658e-10, 0.14208
 1272, 126.004, 0.902976, 2.44272e-05, 1.10486e-09, 0.137249
 1284, 127.004, 0.902694, 2.26211e-05, 1.34653e-09, 0.13263
 1296, 128.004, 0.902433, 2.08982e-05, 1.63945e-09, 0.128228
 1308, 129.004, 0.902192, 1.92596e-05, 1.99414e-09, 0.124043
 1320, 130.004, 0.901971, 1.77055e-05, 2.42321e-09, 0.120077
 1332, 131.004, 0.901767, 1.62358e-05, 2.94176e-09, 0.116328
 1344, 132.004, 0.901581, 1.485e-05, 3.56785e-09, 0.112796
 1356, 133.004, 0.901411, 1.35471e-05, 4.32309e-09, 0.109476
 1368, 134.004, 0.901256, 1.23259e-05, 5.23326e-09, 0.106366
 1380, 135.004, 0.901115, 1.11847e-05, 6.32913e-09, 0.103461
 1392, 136.004, 0.900987, 1.01214e-05, 7.64737e-09, 0.100756
 1404, 137.004, 0.900872, 9.13379e-06, 9.23164e-09, 0.0982446
 1416, 138.004, 0.900768, 8.21934e-06, 1.11339e-08, 0.0959202
 1428, 139.004, 0.900674, 7.37527e-06, 1.3416e-08, 0.0937757
 1440, 140.004, 0.90059, 6.59863e-06, 1.61512e-08, 0.0918032
 1452, 141.004, 0.900516, 5.88635e-06, 1.94267e-08, 0.089995
 1464, 142.004, 0.900449, 5.23519e-06, 2.33456e-08, 0.0883425
 1476, 143.004, 0.90039, 4.64189e-06, 2.80304e-08, 0.0868374
 1488, 144.004, 0.900337, 4.10308e-06, 3.36257e-08, 0.0854711
 1500, 145.004, 0.900291, 3.61542e-06, 4.03029e-08, 0.0842348
 1512, 146.004, 0.90025, 3.17556e-06, 4.82642e-08, 0.0831202
 1524, 147.004, 0.900215, 2.78018e-06, 5.77486e-08, 0.0821185
 1536, 148.004, 0.900184, 2.42601e-06, 6.9038e-08, 0.0812216
 1548, 149.004, 0.900157, 2.1099e-06, 8.24645e-08, 0.0804213
 1560, 150.004, 0.900133, 1.82876e-06, 9.84196e-08, 0.0797098
 1572, 151.004, 0.900112, 1.57962e-06, 1.17364e-07, 0.0790794
 1584, 152.004, 0.900095, 1.35966e-06, 1.39838e-07, 0.0785229
 1596, 153.004, 0.90008, 1.16618e-06, 1.6648e-07, 0.0780336
 1608, 154.004, 0.900067, 9.96638e-07, 1.98035e-07, 0.077605
 1620, 155.004, 0.900056, 8.48634e-07, 2.3538e-07, 0.077231
 1632, 156.004, 0.900046, 7.19934e-07, 2.79543e-07, 0.0769056
 1644, 157.004, 0.900038, 6.08458e-07, 3.31727e-07, 0.076624
 1656, 158.004, 0.900032, 5.12284e-07, 3.9334e-07, 0.0763812
 1668, 159.004, 0.900026, 4.29645e-07, 4.66028e-07, 0.0761725
 1680, 160.004, 0.900021, 3.58926e-07, 5.51717e-07, 0.075994
 1692, 161.004, 0.900017, 2.98657e-07, 6.52654e-07, 0.075842
 1704, 162.004, 0.900014, 2.47509e-07, 7.71462e-07, 0.0757127
 1716, 163.004, 0.900011, 2.04286e-07, 9.11198e-07, 0.0756037
 1728, 164.004, 0.900009, 1.67917e-07, 1.07543e-06, 0.0755119
 1740, 165.004, 0.900007, 1.37449e-07, 1.26829e-06, 0.0754351
 1752, 166.004, 0.900006, 1.12039e-07, 1.49462e-06, 0.075371
 1764, 167.004, 0.900005, 9.09417e-08, 1.76003e-06, 0.0753178
 1776, 168.004, 0.900004, 7.35069e-08, 2.07104e-06, 0.0752738
 1788, 169.004, 0.900003, 5.91664e-08, 2.4352e-06, 0.0752376
 1800, 170.004, 0.900002, 4.74283e-08, 2.86131e-06, 0.0752082
 1812, 171.004, 0.900002, 3.78683e-08, 3.35953e-06, 0.0751839
 1824, 172.004, 0.900001, 3.0123e-08, 3.94167e-06, 0.0751644
 1836, 173.004, 0.900001, 2.38825e-08, 4.62136e-06, 0.0751487
 1848, 174.004, 0.900001, 1.8884e-08, 5.41441e-06, 0.0751359
 1860, 175.004, 0.900001, 1.49065e-08, 6.33906e-06, 0.075126
 1872, 176.004, 0.9, 1.17645e-08, 7.41641e-06, 0.075118
 1884, 177.004, 0.9, 9.30403e-09, 8.67082e-06, 0.0751118
 1896, 178.004, 0.9, 7.39768e-09, 1.01304e-05, 0.0751068
 1908, 179.004, 0.9, 5.941e-09, 1.18275e-05, 0.0751032
 1920, 180.004, 0.9, 4.84901e-09, 1.37994e-05, 0.0751002
 1932, 181.004, 0.9, 4.05324e-09, 1.60893e-05, 0.0750979
 1944, 182.004, 0.9, 3.49914e-09, 1.87464e-05, 0.0750966
 1956, 183.004, 0.9, 3.14387e-09, 2.18277e-05, 0.0750955
 1968, 184.004, 0.9, 2.95442e-09, 2.53986e-05, 0.0750949
 1980, 185.004, 0.9, 2.90603e-09, 2.95341e-05, 0.0750945
 1992, 186.004, 0.9, 2.98086e-09, 3.43205e-05, 0.0750943
 2004, 187.004, 0.9, 3.16696e-09, 3.98564e-05, 0.0750945
 2016, 188.004, 0.9, 3.45737e-09, 4.62554e-05, 0.0750949
 2028, 189.004, 0.9, 3.84947e-09, 5.36471e-05, 0.0750954
 2040, 190.004, 0.9, 4.34446e-09, 6.21802e-05, 0.0750961
 2052, 191.004, 0.9, 4.94699e-09, 7.20247e-05, 0.0750973
 2064, 192.004, 0.9, 5.66495e-09, 8.33751e-05, 0.0750983
 2076, 193.004, 0.899999, 6.50929e-09, 9.64537e-05, 0.0750997
 2088, 194.004, 0.899999, 7.49404e-09, 0.000111514, 0.0751013
 2100, 195.004, 0.899999, 8.63637e-09, 0.000128847, 0.0751032
 2112, 196.004, 0.899999, 9.95671e-09, 0.000148781, 0.0751054
 2124, 197.004, 0.899999, 1.1479e-08, 0.000171695, 0.075108
 2136, 198.004, 0.899999, 1.32311e-08, 0.000198017, 0.0751106
 2148, 199.004, 0.899999, 1.5245e-08, 0.000228236, 0.0751142
 2160, 200.004, 0.899999, 1.75573e-08, 0.000262909, 0.0751181
 2172, 201.004, 0.899998, 2.021e-08, 0.000302669, 0.0751223
 2184, 202.004, 0.899998, 2.32509e-08, 0.000348236, 0.0751274
 2196, 203.004, 0.899998, 2.67344e-08, 0.000400426, 0.0751332
 2208, 204.004, 0.899997, 3.07224e-08, 0.000460169, 0.0751399
 2220, 205.004, 0.899997, 3.52851e-08, 0.000528518, 0.0751476
 2232, 206.004, 0.899997, 4.05022e-08, 0.000606668, 0.0751561
 2244, 207.004, 0.899996, 4.64642e-08, 0.000695974, 0.0751661
 2256, 208.004, 0.899995, 5.32735e-08, 0.000797971, 0.0751774
 2268, 209.004, 0.899995, 6.10461e-08, 0.000914396, 0.0751903
 2280, 210.004, 0.899994, 6.99133e-08, 0.00104722, 0.075205
 2292, 211.004, 0.899993, 8.00237e-08, 0.00119866, 0.0752218
 2304, 212.004, 0.899992, 9.15453e-08, 0.00137124, 0.075241
 2316, 213.004, 0.899991, 1.04668e-07, 0.00156779, 0.0752629
 2328, 214.004, 0.89999, 1.19605e-07, 0.00179154, 0.0752876
 2340, 215.004, 0.899988, 1.366e-07, 0.0020461, 0.0753158
 2352, 216.004, 0.899986, 1.55924e-07, 0.00233556, 0.075348
 2364, 217.004, 0.899984, 1.77887e-07, 0.00266453, 0.0753845
 2376, 218.004, 0.899982, 2.02833e-07, 0.0030382, 0.075426
 2388, 219.004, 0.899979, 2.31155e-07, 0.00346243, 0.0754729
 2400, 220.004, 0.899976, 2.63292e-07, 0.00394379, 0.0755265
 2412, 221.004, 0.899973, 2.99738e-07, 0.00448971, 0.0755869
 2424, 222.004, 0.899969, 3.4105e-07, 0.00510852, 0.0756556
 2436, 223.004, 0.899965, 3.87854e-07, 0.00580959, 0.0757334
 2448, 224.004, 0.89996, 4.40853e-07, 0.00660344, 0.0758215
 2460, 225.004, 0.899954, 5.00835e-07, 0.0075019, 0.0759211
 2472, 226.004, 0.899948, 5.68687e-07, 0.00851824, 0.0760338
 2484, 227.004, 0.89994, 6.45402e-07, 0.00966734, 0.0761614
 2496, 228.004, 0.899932, 7.32094e-07, 0.0109659, 0.0763053
 2508, 229.004, 0.899923, 8.30014e-07, 0.0124326, 0.0764681
 2520, 230.004, 0.899912, 9.40558e-07, 0.0140884, 0.0766518
 2532, 231.004, 0.8999, 1.06529e-06, 0.0159568, 0.076859
 2544, 232.004, 0.899887, 1.20597e-06, 0.018064, 0.0770926
 2556, 233.004, 0.899871, 1.36456e-06, 0.0204394, 0.0773562
 2568, 234.004, 0.899854, 1.54324e-06, 0.0231158, 0.0776531
 2580, 235.004, 0.899834, 1.74446e-06, 0.0261299, 0.0779873
 2592, 236.004, 0.899812, 1.97096e-06, 0.0295226, 0.0783634
 2604, 237.004, 0.899787, 2.22579e-06, 0.0333397, 0.0787869
 2616, 238.004, 0.899758, 2.51236e-06, 0.0376322, 0.0792629
 2628, 239.004, 0.899726, 2.83447e-06, 0.0424569, 0.079798
 2640, 240.004, 0.89969, 3.19634e-06, 0.0478774, 0.0803991
 2652, 241.004, 0.899649, 3.6027e-06, 0.0539641, 0.0810741
 2664, 242.004, 0.899603, 4.05879e-06, 0.0607959, 0.0818317
 2676, 243.004, 0.899552, 4.57046e-06, 0.0684601, 0.0826817
 2688, 244.004, 0.899493, 5.14421e-06, 0.0770541, 0.0836345
 2700, 245.004, 0.899428, 5.78726e-06, 0.0866862, 0.0847023
 2712, 246.004, 0.899354, 6.50764e-06, 0.0974766, 0.085899
 2724, 247.004, 0.899271, 7.31426e-06, 0.109559, 0.0872387
 2736, 248.004, 0.899178, 8.21701e-06, 0.123081, 0.0887376
 2748, 249.004, 0.899073, 9.22687e-06, 0.138207, 0.0904148
 2760, 250.004, 0.898956, 1.0356e-05, 0.15512, 0.0922901
 2772, 251.004, 0.898824, 1.16179e-05, 0.174021, 0.0943855
 2784, 252.004, 0.898676, 1.30274e-05, 0.195134, 0.0967264
 2796, 253.004, 0.898511, 1.4601e-05, 0.218706, 0.0993394
 2808, 254.004, 0.898325, 1.63571e-05, 0.245009, 0.102256
 2820, 255.004, 0.898117, 1.83156e-05, 0.274346, 0.105508
 2832, 256.004, 0.897884, 2.0499e-05, 0.30705, 0.109133
 2844, 257.004, 0.897624, 2.29316e-05, 0.343488, 0.113172
 2856, 258.004, 0.897333, 2.56406e-05, 0.384066, 0.11767
 2868, 259.004, 0.897007, 2.86557e-05, 0.429228, 0.122676
 2880, 260.004, 0.896643, 3.20096e-05, 0.479465, 0.128245
 2892, 261.004, 0.896237, 3.57383e-05, 0.535317, 0.134435
 2904, 262.004, 0.895784, 3.98813e-05, 0.597373, 0.141313
 2916, 263.004, 0.895278, 4.44818e-05, 0.666284, 0.14895
 2928, 264.004, 0.894713, 4.95872e-05, 0.742757, 0.157426
 2940, 265.004, 0.894085, 5.52493e-05, 0.827569, 0.166825
 2952, 266.004, 0.893384, 6.15247e-05, 0.921566, 0.177242
 2964, 267.004, 0.892605, 6.84749e-05, 1.02567, 0.188778
 2976, 268.004, 0.891737, 7.6167e-05, 1.14089, 0.201546
 2988, 269.004, 0.890773, 8.46736e-05, 1.26831, 0.215665
 3000, 270.004, 0.889701, 9.40736e-05, 1.40911, 0.231266
 3012, 271.004, 0.88851, 0.000104452, 1.56457, 0.248491
 3024, 272.004, 0.887188, 0.000115901, 1.73605, 0.26749
 3036, 273.004, 0.885723, 0.000128518, 1.92504, 0.288428
 3048, 274.004, 0.884098, 0.000142409, 2.13312, 0.311479
 3060, 275.004, 0.882298, 0.000157687, 2.36196, 0.336828
 3072, 276.004, 0.880306, 0.00017447, 2.61335, 0.364675
 3084, 277.004, 0.878102, 0.000192884, 2.88917, 0.395225
 3096, 278.004, 0.875667, 0.000213061, 3.1914, 0.428698
 3108, 279.004, 0.872979, 0.000235139, 3.5221, 0.465322
 3120, 280.004, 0.870013, 0.00025926, 3.8834, 0.50533
 3132, 281.004, 0.866745, 0.000285567, 4.27745, 0.548963
 3144, 282.004, 0.863148, 0.000314209, 4.70647, 0.596462
 3156, 283.004, 0.859192, 0.00034533, 5.17263, 0.648067
 3168, 284.004, 0.854846, 0.000379073, 5.67805, 0.704012
 3180, 285.004, 0.850079, 0.000415571, 6.22475, 0.764519
 3192, 286.004, 0.844857, 0.000454948, 6.81457, 0.829788
 3204, 287.004, 0.839144, 0.000497309, 7.44909, 0.899994
 3216, 288.004, 0.832905, 0.000542738, 8.12957, 0.975271
 3228, 289.004, 0.826102, 0.000591287, 8.85677, 1.0557
 3240, 290.004, 0.818697, 0.00064297, 9.63092, 1.14131
 3252, 291.004, 0.810653, 0.000697753, 10.4515, 1.23202
 3264, 292.003, 0.801933, 0.000755541, 11.3171, 1.32769
 3276, 293.003, 0.792502, 0.00081617, 12.2252, 1.42802
 3288, 294.003, 0.782328, 0.000879392, 13.1722, 1.53261
 3300, 295.003, 0.771381, 0.00094486, 14.1529, 1.64087
 3312, 296.003, 0.759638, 0.00101212, 15.1603, 1.75204
 3324, 297.003, 0.747079, 0.00108058, 16.1858, 1.86513
 3336, 298.003, 0.733695, 0.00114953, 17.2186, 1.97896
 3348, 299.003, 0.719485, 0.00121811, 18.2458, 2.09206
 3360, 300.003, 0.704459, 0.00128528, 19.252, 2.20274
 3372, 301.003, 0.688642, 0.00134988, 20.2196, 2.30904
 3384, 302.003, 0.672071, 0.00141057, 21.1286, 2.40873
 3396, 303.003, 0.654804, 0.00146588, 21.9572, 2.49938
 3408, 304.003, 0.636913, 0.00151424, 22.6814, 2.57836
 3420, 305.003, 0.618492, 0.00155397, 23.2766, 2.64289
 3432, 306.003, 0.599655, 0.00158339, 23.7172, 2.69017
 3444, 307.003, 0.580536, 0.00160083, 23.9786, 2.71747
 3456, 308.003, 0.561288, 0.00160477, 24.0376, 2.72222
 3468, 309.003, 0.542082, 0.00159387, 23.8743, 2.70224
 3480, 310.003, 0.523101, 0.00156712, 23.4735, 2.65585
 3492, 311.003, 0.50454, 0.0015239, 22.8262, 2.58207
 3504, 312.003, 0.486599, 0.00146415, 21.9312, 2.48081
 3516, 313.003, 0.469472, 0.0013884, 20.7966, 2.35297
 3528, 314.003, 0.453344, 0.00129786, 19.4404, 2.20058
 3540, 315.003, 0.438384, 0.00119444, 17.8913, 2.02686
 3552, 316.003, 0.42473, 0.00108071, 16.1877, 1.83609
 3564, 317.003, 0.412487, 0.000959835, 14.3772, 1.63357
 3576, 318.003, 0.40172, 0.000835415, 12.5135, 1.42528
 3588, 319.004, 0.392449, 0.000711273, 10.654, 1.21761
 3600, 320.004, 0.384646, 0.00059121, 8.85561, 1.01688
 3612, 321.004, 0.378241, 0.000478723, 7.1707, 0.828904
 3624, 322.004, 0.373125, 0.000376748, 5.64323, 0.658568
 3636, 323.004, 0.369158, 0.000287435, 4.30543, 0.509438
 3648, 324.004, 0.366179, 0.000212008, 3.17562, 0.383541
 3660, 325.004, 0.36402, 0.000150726, 2.2577, 0.281286
 3672, 326.004, 0.362513, 0.000102953, 1.54211, 0.201598
 3684, 327.004, 0.361504, 6.73236e-05, 1.00843, 0.142186
 3696, 328.004, 0.360859, 4.19872e-05, 0.628918, 0.0999494
 3708, 329.004, 0.360466, 2.48707e-05, 0.372533, 0.0714272
 3720, 330.004, 0.360239, 1.39297e-05, 0.20865, 0.0532007
 3732, 331.004, 0.360115, 7.34181e-06, 0.109971, 0.0422286
 3744, 332.004, 0.360052, 3.62336e-06, 0.0542736, 0.0360394
 3756, 333.004, 0.360021, 1.66644e-06, 0.0249613, 0.0327822
 3768, 334.004, 0.360008, 7.11958e-07, 0.0106643, 0.0311942
 3780, 335.004, 0.360002, 2.83525e-07, 0.00424686, 0.0304804
 3792, 336.004, 0.36, 1.08221e-07, 0.00162102, 0.0301886
 3804, 337.004, 0.359999, 4.39543e-08, 0.000658383, 0.030081
 3816, 338.004, 0.359999, 2.38759e-08, 0.000357632, 0.030047
 3828, 339.004, 0.359999, 1.97637e-08, 0.000296036, 0.0300389
 3840, 340.004, 0.359999, 2.10238e-08, 0.000314912, 0.030039
 3852, 341.004, 0.359998, 2.41774e-08, 0.000362148, 0.0300421
 3864, 342.004, 0.359998, 2.82723e-08, 0.000423486, 0.0300479
 3876, 343.004, 0.359998, 3.31458e-08, 0.000496484, 0.0300537
 3888, 344.004, 0.359997, 3.88573e-08, 0.000582036, 0.0300599
 3900, 345.004, 0.359997, 4.55324e-08, 0.00068202, 0.0300681
 3912, 346.004, 0.359996, 5.3327e-08, 0.000798775, 0.0300762
 3924, 347.004, 0.359995, 6.24242e-08, 0.00093504, 0.0300864
 3936, 348.004, 0.359995, 7.30363e-08, 0.001094, 0.0301002
 3948, 349.004, 0.359994, 8.54093e-08, 0.00127933, 0.0301148
 3960, 350.004, 0.359992, 9.98281e-08, 0.00149531, 0.0301305
 3972, 351.004, 0.359991, 1.16623e-07, 0.00174687, 0.0301512
 3984, 352.004, 0.35999, 1.36175e-07, 0.00203974, 0.0301739
 3996, 353.004, 0.359988, 1.58926e-07, 0.00238053, 0.0302008
 4008, 354.004, 0.359986, 1.85388e-07, 0.00277688, 0.0302309
 4020, 355.004, 0.359983, 2.16148e-07, 0.00323764, 0.0302673
 4032, 356.004, 0.359981, 2.51889e-07, 0.003773, 0.0303102
 4044, 357.004, 0.359977, 2.93398e-07, 0.00439474, 0.0303579
 4056, 358.004, 0.359974, 3.4158e-07, 0.00511646, 0.0304134
 4068, 359.004, 0.359969, 3.97483e-07, 0.00595382, 0.0304792
 4080, 360.004, 0.359964, 4.62313e-07, 0.00692489, 0.0305557
 4092, 361.004, 0.359958, 5.37459e-07, 0.00805048, 0.0306436
 4104, 362.004, 0.359951, 6.2452e-07, 0.00935457, 0.0307462
 4116, 363.004, 0.359943, 7.2534e-07, 0.0108647, 0.0308644
 4128, 364.004, 0.359934, 8.42037e-07, 0.0126127, 0.0310006
 4140, 365.004, 0.359923, 9.77046e-07, 0.014635, 0.0311583
 4152, 366.004, 0.35991, 1.13317e-06, 0.0169735, 0.0313417
 4164, 367.004, 0.359895, 1.31362e-06, 0.0196764, 0.0315519
 4176, 368.004, 0.359878, 1.52209e-06, 0.0227991, 0.031797
 4188, 369.004, 0.359859, 1.76283e-06, 0.026405, 0.0320789
 4200, 370.004, 0.359836, 2.04068e-06, 0.030567, 0.0324034
 4212, 371.004, 0.359809, 2.36123e-06, 0.0353684, 0.0327788
 4224, 372.004, 0.359779, 2.73086e-06, 0.040905, 0.033213
 4236, 373.004, 0.359744, 3.15688e-06, 0.0472862, 0.0337102
 4248, 374.004, 0.359703, 3.64765e-06, 0.0546375, 0.034286
 4260, 375.004, 0.359656, 4.21276e-06, 0.0631021, 0.0349477
 4272, 376.004, 0.359601, 4.86314e-06, 0.0728439, 0.0357081
 4284, 377.004, 0.359539, 5.61128e-06, 0.0840503, 0.0365844
 4296, 378.004, 0.359466, 6.47147e-06, 0.0969349, 0.0375909
 4308, 379.004, 0.359383, 7.45999e-06, 0.111742, 0.0387487
 4320, 380.004, 0.359286, 8.59539e-06, 0.128749, 0.0400767
 4332, 381.004, 0.359176, 9.89882e-06, 0.148272, 0.0416034
 4344, 382.004, 0.359048, 1.13944e-05, 0.170674, 0.0433542
 4356, 383.004, 0.358901, 1.31094e-05, 0.196363, 0.0453609
 4368, 384.004, 0.358732, 1.5075e-05, 0.225805, 0.0476622
 4380, 385.004, 0.358538, 1.73265e-05, 0.25953, 0.0502983
 4392, 386.004, 0.358315, 1.99039e-05, 0.298136, 0.0533139
 4404, 387.004, 0.358058, 2.28525e-05, 0.342303, 0.0567641
 4416, 388.004, 0.357764, 2.62237e-05, 0.3928, 0.0607107
 4428, 389.004, 0.357427, 3.00753e-05, 0.450491, 0.0652195
 4440, 390.004, 0.35704, 3.44725e-05, 0.516357, 0.0703639
 4452, 391.004, 0.356597, 3.94888e-05, 0.591495, 0.0762353
 4464, 392.004, 0.356089, 4.52068e-05, 0.677143, 0.0829259
 4476, 393.004, 0.355508, 5.17186e-05, 0.774683, 0.0905466
 4488, 394.004, 0.354843, 5.91277e-05, 0.885662, 0.0992159
 4500, 395.004, 0.354084, 6.75489e-05, 1.0118, 0.109069
 4512, 396.004, 0.353217, 7.71101e-05, 1.15502, 0.120255
 4524, 397.004, 0.352227, 8.79522e-05, 1.31742, 0.13294
 4536, 398.004, 0.351099, 0.000100231, 1.50133, 0.147304
 4548, 399.004, 0.349814, 0.000114115, 1.70931, 0.163547
 4560, 400.004, 0.348351, 0.000129791, 1.94412, 0.181883
 4572, 401.004, 0.346689, 0.000147458, 2.20874, 0.202545
 4584, 402.004, 0.344802, 0.000167328, 2.50637, 0.225784
 4596, 403.004, 0.342662, 0.000189627, 2.84038, 0.251861
 4608, 404.004, 0.340238, 0.00021459, 3.21429, 0.281049
 4620, 405.004, 0.337497, 0.000242455, 3.63169, 0.313627
 4632, 406.004, 0.334403, 0.000273464, 4.09616, 0.349875
 4644, 407.004, 0.330917, 0.000307846, 4.61117, 0.39006
 4656, 408.004, 0.326997, 0.000345814, 5.17988, 0.434427
 4668, 409.004, 0.322599, 0.000387546, 5.80497, 0.483182
 4680, 410.004, 0.317676, 0.000433172, 6.4884, 0.536474
 4692, 411.004, 0.312182, 0.00048275, 7.23102, 0.594366
 4704, 412.004, 0.306069, 0.000536241, 8.03225, 0.656805
 4716, 413.004, 0.299292, 0.000593479, 8.8896, 0.723591
 4728, 414.004, 0.291806, 0.000654134, 9.79813, 0.79433
 4740, 415.004, 0.283575, 0.000717676, 10.7499, 0.868395
 4752, 416.004, 0.274567, 0.000783333, 11.7334, 0.94487
 4764, 417.004, 0.264764, 0.000850052, 12.7328, 1.02251
 4776, 418.004, 0.25416, 0.000916461, 13.7275, 1.09971
 4788, 419.004, 0.24277, 0.000980845, 14.6919, 1.17443
 4800, 420.004, 0.23063, 0.00104114, 15.595, 1.24426
 4812, 421.003, 0.217803, 0.00109493, 16.4008, 1.30637
 4824, 422.003, 0.204383, 0.00113956, 17.0692, 1.35762
 4836, 423.003, 0.190498, 0.00117215, 17.5573, 1.39466
 4848, 424.003, 0.176309, 0.00118983, 17.8222, 1.41413
 4860, 425.003, 0.162012, 0.00118992, 17.8236, 1.41289
 4872, 426.003, 0.147831, 0.00117022, 17.5285, 1.3884
 4884, 427.003, 0.134014, 0.00112933, 16.916, 1.33902
 4896, 428.004, 0.120819, 0.00106693, 15.9814, 1.26442
 4908, 429.004, 0.108497, 0.000984141, 14.7413, 1.16595
 4920, 430.004, 0.0972795, 0.000883635, 13.2358, 1.04677
 4932, 431.004, 0.0873544, 0.000769685, 11.529, 0.911914
 4944, 432.004, 0.0788502, 0.000647921, 9.70508, 0.768023
 4956, 433.004, 0.0718218, 0.000524859, 7.86175, 0.622749
 4968, 434.004, 0.066244, 0.000407178, 6.09904, 0.483941
 4980, 435.004, 0.062015, 0.000300885, 4.5069, 0.358648
 4992, 436.004, 0.0589687, 0.000210503, 3.15308, 0.25217
 5004, 437.004, 0.0568973, 0.000138482, 2.0743, 0.167367
 5016, 438.004, 0.0555769, 8.50141e-05, 1.27341, 0.10444
 5028, 439.004, 0.0547943, 4.82857e-05, 0.723262, 0.0612345
 5040, 440.004, 0.0543667, 2.51301e-05, 0.376419, 0.0340093
 5052, 441.004, 0.0541535, 1.18556e-05, 0.177583, 0.0184157
 5064, 442.004, 0.0540576, 5.00894e-06, 0.0750279, 0.0103807
 5076, 443.004, 0.0540191, 1.86961e-06, 0.0280045, 0.0067
 5088, 444.004, 0.0540055, 6.07176e-07, 0.00909477, 0.00521957
 5100, 445.004, 0.0540014, 1.6866e-07, 0.00252632, 0.00470374
 5112, 446.004, 0.0540003, 3.93104e-08, 0.000588823, 0.00454613
 5124, 447.004, 0.054, 7.52423e-09, 0.000112704, 0.00450615
 5136, 448.004, 0.054, 1.1545e-09, 1.72931e-05, 0.004499
 5148, 449.004, 0.054, 1.38215e-10, 2.0703e-06, 0.00449529
 5160, 450.004, 0.054, 1.25245e-11, 1.87602e-07, 0.00449704
 5172, 451.004, 0.054, 8.30266e-13, 1.24364e-08, 0.00449747
 5184, 452.004, 0.054, 3.87547e-14, 5.80499e-10, 0.0044978
 5196, 453.004, 0.054, 1.22024e-15, 1.82777e-11, 0.00449851
 5208, 454.004, 0.054, 2.46972e-17, 3.69934e-13, 0.00450076
 5220, 455.004, 0.054, 3.04375e-19, 4.55917e-15, 0.00450387
 5232, 456.004, 0.054, 2.14923e-21, 3.21928e-17, 0.00450551
 5244, 457.004, 0.054, 8.11913e-24, 1.21615e-19, 0.00450355
 5256, 458.004, 0.054, 1.51906e-26, 2.27537e-22, 0.00450204
 5268, 459.004, 0.054, 1.29033e-29, 1.93276e-25, 0.00450147
 5280, 460.004, 0.054, 4.51073e-33, 6.75654e-29, 0.00450053
 5292, 461.004, 0.054, 5.80795e-37, 8.69961e-33, 0.00449928
 5304, 462.004, 0.054, 0.0000000E+000, 3.6388e-37, 0.00449986
 5316, 463.004, 0.054, 0.0000000E+000, 0.0000000E+000, 0.00449954
 5328, 464.004, 0.054, 0.0000000E+000, 0.0000000E+000, 0.00449926
 5340, 465.004, 0.054, 0.0000000E+000, 0.0000000E+000, 0.00449884
 5352, 466.004, 0.054, 0.0000000E+000, 0.0000000E+000, 0.00449878
 5364, 467.004, 0.054, 0.0000000E+000, 0.0000000E+000, 0.00450034
 5376, 468.004, 0.054, 0.0000000E+000, 0.0000000E+000, 0.00450159
 5388, 469.004, 0.054, 0.0000000E+000, 0.0000000E+000, 0.0045016
 5400, 470.004, 0.054, 0.0000000E+000, 0.0000000E+000, 0.00450285
 5412, 471.004, 0.054, 0.0000000E+000, 0.0000000E+000, 0.0045026
 5424, 472.004, 0.054, 0.0000000E+000, 0.0000000E+000, 0.00450266
 5436, 473.004, 0.054, 0.0000000E+000, 0.0000000E+000, 0.00450208
 5448, 474.004, 0.054, 0.0000000E+000, 0.0000000E+000, 0.00450053
 5460, 475.004, 0.054, 0.0000000E+000, 0.0000000E+000, 0.00449961
 5472, 476.004, 0.054, 0.0000000E+000, 0.0000000E+000, 0.00449926
 5484, 477.004, 0.054, 0.0000000E+000, 0.0000000E+000, 0.00449927
 5496, 478.004, 0.054, 0.0000000E+000, 0.0000000E+000, 0.00449893
 5508, 479.004, 0.054, 0.0000000E+000, 0.0000000E+000, 0.00449918
 5520, 480.004, 0.054, 0.0000000E+000, 0.0000000E+000, 0.00449975
 5532, 481.004, 0.054, 0.0000000E+000, 0.0000000E+000, 0.00450158
 5544, 482.004, 0.054, 0.0000000E+000, 0.0000000E+000, 0.00450287
 5556, 483.004, 0.054, 0.0000000E+000, 0.0000000E+000, 0.00450257
 5568, 484.004, 0.054, 0.0000000E+000, 0.0000000E+000, 0.00450168
 5580, 485.004, 0.054, 0.0000000E+000, 0.0000000E+000, 0.0045011
 5592, 486.004, 0.054, 0.0000000E+000, 0.0000000E+000, 0.00450139
 5604, 487.004, 0.054, 0.0000000E+000, 0.0000000E+000, 0.00450053
 5616, 488.004, 0.054, 0.0000000E+000, 0.0000000E+000, 0.00449894
 5628, 489.004, 0.054, 0.0000000E+000, 0.0000000E+000, 0.00449825
 5640, 490.004, 0.054, 0.0000000E+000, 0.0000000E+000, 0.00449889
 5652, 491.004, 0.054, 0.0000000E+000, 0.0000000E+000, 0.00449972
 5664, 492.004, 0.054, 0.0000000E+000, 0.0000000E+000, 0.00450207
 5676, 493.004, 0.054, 0.0000000E+000, 0.0000000E+000, 0.0045036
 5688, 494.004, 0.054, 0.0000000E+000, 0.0000000E+000, 0.00450399
 5700, 495.004, 0.054, 0.0000000E+000, 0.0000000E+000, 0.00450642
 5712, 496.004, 0.054, 0.0000000E+000, 0.0000000E+000, 0.00450624
 5724, 497.004, 0.054, 0.0000000E+000, 0.0000000E+000, 0.00450416
 5736, 498.004, 0.054, 0.0000000E+000, 0.0000000E+000, 0.00450359
 5748, 499.004, 0.054, 0.0000000E+000, 0.0000000E+000, 0.00450002
 5760, 500.004, 0.054, 0.0000000E+000, 0.0000000E+000, 0.00449749
 5772, 501.004, 0.054, 0.0000000E+000, 0.0000000E+000, 0.00449672
 5784, 502.004, 0.054, 0.0000000E+000, 0.0000000E+000, 0.00449787
 5796, 503.004, 0.054, 0.0000000E+000, 0.0000000E+000, 0.00450049
 5808, 504.004, 0.054, 0.0000000E+000, 0.0000000E+000, 0.00450332
 5820, 505.004, 0.054, 0.0000000E+000, 0.0000000E+000, 0.00450581
 5832, 506.004, 0.054, 0.0000000E+000, 0.0000000E+000, 0.00450619
 5844, 507.004, 0.054, 0.0000000E+000, 0.0000000E+000, 0.00450448
 5856, 508.004, 0.054, 0.0000000E+000, 0.0000000E+000, 0.00450239
 5868, 509.004, 0.054, 0.0000000E+000, 0.0000000E+000, 0.00450122
 5880, 510.004, 0.054, 0.0000000E+000, 0.0000000E+000, 0.00450242
 5892, 511.004, 0.054, 0.0000000E+000, 0.0000000E+000, 0.00449995
 5904, 512.004, 0.054, 0.0000000E+000, 0.0000000E+000, 0.00449904
 5916, 513.004, 0.054, 0.0000000E+000, 0.0000000E+000, 0.00449783
 5928, 514.004, 0.054, 0.0000000E+000, 0.0000000E+000, 0.00449809
 5940, 515.004, 0.054, 0.0000000E+000, 0.0000000E+000, 0.00449654
 5952, 516.004, 0.054, 0.0000000E+000, 0.0000000E+000, 0.00449845
 5964, 517.004, 0.054, 0.0000000E+000, 0.0000000E+000, 0.00450049
 5976, 518.004, 0.054, 0.0000000E+000, 0.0000000E+000, 0.00450238
 5988, 519.004, 0.054, 0.0000000E+000, 0.0000000E+000, 0.00450393
 6000, 520.004, 0.054, 0.0000000E+000, 0.0000000E+000, 0.00450332
 6012, 521.004, 0.054, 0.0000000E+000, 0.0000000E+000, 0.0045045
 6024, 522.004, 0.054, 0.0000000E+000, 0.0000000E+000, 0.00450649
 6036, 523.004, 0.054, 0.0000000E+000, 0.0000000E+000, 0.00450661
 6048, 524.004, 0.054, 0.0000000E+000, 0.0000000E+000, 0.00450337
 6060, 525.004, 0.054, 0.0000000E+000, 0.0000000E+000, 0.00450055
 6072, 526.004, 0.054, 0.0000000E+000, 0.0000000E+000, 0.00449961
 6084, 527.004, 0.054, 0.0000000E+000, 0.0000000E+000, 0.0044989
 6096, 528.004, 0.054, 0.0000000E+000, 0.0000000E+000, 0.00449946
 6108, 529.004, 0.054, 0.0000000E+000, 0.0000000E+000, 0.0045007
 6120, 530.004, 0.054, 0.0000000E+000, 0.0000000E+000, 0.00450098
 6132, 531.004, 0.054, 0.0000000E+000, 0.0000000E+000, 0.0045028
 6144, 532.004, 0.054, 0.0000000E+000, 0.0000000E+000, 0.00450379
 6156, 533.004, 0.054, 0.0000000E+000, 0.0000000E+000, 0.00450378
 6168, 534.004, 0.054, 0.0000000E+000, 0.0000000E+000, 0.00450357
 6180, 535.004, 0.054, 0.0000000E+000, 0.0000000E+000, 0.00450266
 6192, 536.004, 0.054, 0.0000000E+000, 0.0000000E+000, 0.00450173
 6204, 537.004, 0.054, 0.0000000E+000, 0.0000000E+000, 0.00450088
 6216, 538.004, 0.054, 0.0000000E+000, 0.0000000E+000, 0.0045
 6228, 539.004, 0.054, 0.0000000E+000, 0.0000000E+000, 0.00450242
 6240, 540.004, 0.054, 0.0000000E+000, 0.0000000E+000, 0.00450026
 6252, 541.004, 0.054, 0.0000000E+000, 0.0000000E+000, 0.00449933
 6264, 542.004, 0.054, 0.0000000E+000, 0.0000000E+000, 0.00449897
 6276, 543.004, 0.054, 0.0000000E+000, 0.0000000E+000, 0.00449981
 6288, 544.004, 0.054, 0.0000000E+000, 0.0000000E+000, 0.0045013
 6300, 545.004, 0.054, 0.0000000E+000, 0.0000000E+000, 0.00450229
 6312, 546.004, 0.054, 0.0000000E+000, 0.0000000E+000, 0.00450168
 6324, 547.004, 0.054, 0.0000000E+000, 0.0000000E+000, 0.00450109
 6336, 548.004, 0.054, 0.0000000E+000, 0.0000000E+000, 0.00449985
 6348, 549.004, 0.054, 0.0000000E+000, 0.0000000E+000, 0.00449978
 6360, 550.004, 0.054, 0.0000000E+000, 0.0000000E+000, 0.00450129
 6372, 551.004, 0.054, 0.0000000E+000, 0.0000000E+000, 0.00450128
 6384, 552.004, 0.054, 0.0000000E+000, 0.0000000E+000, 0.00450217
 6396, 553.004, 0.054, 0.0000000E+000, 0.0000000E+000, 0.00450253
 6408, 554.004, 0.054, 0.0000000E+000, 0.0000000E+000, 0.00450342
 6420, 555.004, 0.054, 0.0000000E+000, 0.0000000E+000, 0.00450324
 6432, 556.004, 0.054, 0.0000000E+000, 0.0000000E+000, 0.00450208
 6444, 557.004, 0.054, 0.0000000E+000, 0.0000000E+000, 0.00450061
 6456, 558.004, 0.054, 0.0000000E+000, 0.0000000E+000, 0.00449748
 6468, 559.004, 0.054, 0.0000000E+000, 0.0000000E+000, 0.0044968
 6480, 560.004, 0.054, 0.0000000E+000, 0.0000000E+000, 0.00449648
 6492, 561.004, 0.054, 0.0000000E+000, 0.0000000E+000, 0.0044976
 6504, 562.004, 0.054, 0.0000000E+000, 0.0000000E+000, 0.00449813
 6516, 563.004, 0.054, 0.0000000E+000, 0.0000000E+000, 0.00449994
 6528, 564.004, 0.054, 0.0000000E+000, 0.0000000E+000, 0.0045011
 6540, 565.004, 0.054, 0.0000000E+000, 0.0000000E+000, 0.00450424
 6552, 566.004, 0.054, 0.0000000E+000, 0.0000000E+000, 0.00450397
 6564, 567.004, 0.054, 0.0000000E+000, 0.0000000E+000, 0.00450448
 6576, 568.004, 0.054, 0.0000000E+000, 0.0000000E+000, 0.00450337
 6588, 569.004, 0.054, 0.0000000E+000, 0.0000000E+000, 0.00450283
 6600, 570.004, 0.054, 0.0000000E+000, 0.0000000E+000, 0.00450072
 6612, 571.004, 0.054, 0.0000000E+000, 0.0000000E+000, 0.00449707
 6624, 572.004, 0.054, 0.0000000E+000, 0.0000000E+000, 0.00449717
 6636, 573.004, 0.054, 0.0000000E+000, 0.0000000E+000, 0.00449643
 6648, 574.004, 0.054, 0.0000000E+000, 0.0000000E+000, 0.00449873
 6660, 575.004, 0.054, 0.0000000E+000, 0.0000000E+000, 0.00450058
 6672, 576.004, 0.054, 0.0000000E+000, 0.0000000E+000, 0.00450343
 6684, 577.004, 0.054, 0.0000000E+000, 0.0000000E+000, 0.00450387
 6696, 578.004, 0.054, 0.0000000E+000, 0.0000000E+000, 0.00450216
 6708, 579.004, 0.054, 0.0000000E+000, 0.0000000E+000, 0.00449933
 6720, 580.004, 0.054, 0.0000000E+000, 0.0000000E+000, 0.00449865
 6732, 581.004, 0.054, 0.0000000E+000, 0.0000000E+000, 0.00450011
 6744, 582.004, 0.054, 0.0000000E+000, 0.0000000E+000, 0.00450102
 6756, 583.004, 0.054, 0.0000000E+000, 0.0000000E+000, 0.00450134
 6768, 584.004, 0.054, 0.0000000E+000, 0.0000000E+000, 0.00450138
 6780, 585.004, 0.054, 0.0000000E+000, 0.0000000E+000, 0.00450139
 6792, 586.004, 0.054, 0.0000000E+000, 0.0000000E+000, 0.00450081
 6804, 587.004, 0.054, 0.0000000E+000, 0.0000000E+000, 0.00450079
 6816, 588.004, 0.054, 0.0000000E+000, 0.0000000E+000, 0.0045011
 6828, 589.004, 0.054, 0.0000000E+000, 0.0000000E+000, 0.00450045
 6840, 590.004, 0.054, 0.0000000E+000, 0.0000000E+000, 0.00450018
 6852, 591.004, 0.054, 0.0000000E+000, 0.0000000E+000, 0.00449898
 6864, 592.004, 0.054, 0.0000000E+000, 0.0000000E+000, 0.00449953
 6876, 593.004, 0.054, 0.0000000E+000, 0.0000000E+000, 0.00449984
 6888, 594.004, 0.054, 0.0000000E+000, 0.0000000E+000, 0.00450134
 6900, 595.004, 0.054, 0.0000000E+000, 0.0000000E+000, 0.00450165
 6912, 596.004, 0.054, 0.0000000E+000, 0.0000000E+000, 0.00450165
 6924, 597.004, 0.054, 0.0000000E+000, 0.0000000E+000, 0.00450229
 6936, 598.004, 0.054, 0.0000000E+000, 0.0000000E+000, 0.00450231
 6948, 599.004, 0.054, 0.0000000E+000, 0.0000000E+000, 0.00450235
 6960, 600.004, 0.054, 0.0000000E+000, 0.0000000E+000, 0.00450056
 6972, 601.004, 0.054, 0.0000000E+000, 0.0000000E+000, 0.00449961
 6984, 602.004, 0.054, 0.0000000E+000, 0.0000000E+000, 0.00449926
 6996, 603.004, 0.054, 0.0000000E+000, 0.0000000E+000, 0.00450013
 7008, 604.004, 0.054, 0.0000000E+000, 0.0000000E+000, 0.00450103
 7020, 605.004, 0.054, 0.0000000E+000, 0.0000000E+000, 0.00450073
 7032, 606.004, 0.054, 0.0000000E+000, 0.0000000E+000, 0.00450104
 7044, 607.004, 0.054, 0.0000000E+000, 0.0000000E+000, 0.00450168
 7056, 608.004, 0.054, 0.0000000E+000, 0.0000000E+000, 0.00450202
 7068, 609.004, 0.054, 0.0000000E+000, 0.0000000E+000, 0.00450113
 7080, 610.004, 0.054, 0.0000000E+000, 0.0000000E+000, 0.00450022
 7092, 611.004, 0.054, 0.0000000E+000, 0.0000000E+000, 0.00449931
 7104, 612.004, 0.054, 0.0000000E+000, 0.0000000E+000, 0.00449959
 7116, 613.004, 0.054, 0.0000000E+000, 0.0000000E+000, 0.00449956
 7128, 614.004, 0.054, 0.0000000E+000, 0.0000000E+000, 0.00450041
 7140, 615.004, 0.054, 0.0000000E+000, 0.0000000E+000, 0.0045013
 7152, 616.004, 0.054, 0.0000000E+000, 0.0000000E+000, 0.00450229
 7164, 617.004, 0.054, 0.0000000E+000, 0.0000000E+000, 0.00450175
 7176, 618.004, 0.054, 0.0000000E+000, 0.0000000E+000, 0.00449993
 7188, 619.004, 0.054, 0.0000000E+000, 0.0000000E+000, 0.00449865
 7200, 620.004, 0.054, 0.0000000E+000, 0.0000000E+000, 0.00449888
 7212, 621.004, 0.054, 0.0000000E+000, 0.0000000E+000, 0.00450065
 7224, 622.004, 0.054, 0.0000000E+000, 0.0000000E+000, 0.00450127
 7236, 623.004, 0.054, 0.0000000E+000, 0.0000000E+000, 0.00450095
 7248, 624.004, 0.054, 0.0000000E+000, 0.0000000E+000, 0.00450218
 7260, 625.004, 0.054, 0.0000000E+000, 0.0000000E+000, 0.00450256
 7272, 626.004, 0.054, 0.0000000E+000, 0.0000000E+000, 0.00450226
 7284, 627.004, 0.054, 0.0000000E+000, 0.0000000E+000, 0.00450168
 7296, 628.004, 0.054, 0.0000000E+000, 0.0000000E+000, 0.00450139
 7308, 629.004, 0.054, 0.0000000E+000, 0.0000000E+000, 0.00450112
 7320, 630.004, 0.054, 0.0000000E+000, 0.0000000E+000, 0.00449992
 7332, 631.004, 0.054, 0.0000000E+000, 0.0000000E+000, 0.00449992
 7344, 632.004, 0.054, 0.0000000E+000, 0.0000000E+000, 0.00450022
 7356, 633.004, 0.054, 0.0000000E+000, 0.0000000E+000, 0.00450021
 7368, 634.004, 0.054, 0.0000000E+000, 0.0000000E+000, 0.00449987
 7380, 635.004, 0.054, 0.0000000E+000, 0.0000000E+000, 0.00450012
 7392, 636.004, 0.054, 0.0000000E+000, 0.0000000E+000, 0.00449983
 7404, 637.004, 0.054, 0.0000000E+000, 0.0000000E+000, 0.0045007
 7416, 638.004, 0.054, 0.0000000E+000, 0.0000000E+000, 0.00450131
 7428, 639.004, 0.054, 0.0000000E+000, 0.0000000E+000, 0.00450219
 7440, 640.004, 0.054, 0.0000000E+000, 0.0000000E+000, 0.00450257
 7452, 641.004, 0.054, 0.0000000E+000, 0.0000000E+000, 0.00450167
 7464, 642.004, 0.054, 0.0000000E+000, 0.0000000E+000, 0.00450169
 7476, 643.004, 0.054, 0.0000000E+000, 0.0000000E+000, 0.00450114
 7488, 644.004, 0.054, 0.0000000E+000, 0.0000000E+000, 0.0044999
 7500, 645.004, 0.054, 0.0000000E+000, 0.0000000E+000, 0.00449983
 7512, 646.004, 0.054, 0.0000000E+000, 0.0000000E+000, 0.00450044
 7524, 647.004, 0.054, 0.0000000E+000, 0.0000000E+000, 0.0045016
 7536, 648.004, 0.054, 0.0000000E+000, 0.0000000E+000, 0.00450196
 7548, 649.004, 0.054, 0.0000000E+000, 0.0000000E+000, 0.00450232
 7560, 650.004, 0.054, 0.0000000E+000, 0.0000000E+000, 0.00450234
 7572, 651.004, 0.054, 0.0000000E+000, 0.0000000E+000, 0.00450204
 7584, 652.004, 0.054, 0.0000000E+000, 0.0000000E+000, 0.00450173
 7596, 653.004, 0.054, 0.0000000E+000, 0.0000000E+000, 0.00450142
 7608, 654.004, 0.054, 0.0000000E+000, 0.0000000E+000, 0.00450082
 7620, 655.004, 0.054, 0.0000000E+000, 0.0000000E+000, 0.00450053
 7632, 656.004, 0.054, 0.0000000E+000, 0.0000000E+000, 0.00450049
 7644, 657.004, 0.054, 0.0000000E+000, 0.0000000E+000, 0.00450017
 7656, 658.004, 0.054, 0.0000000E+000, 0.0000000E+000, 0.00450048
 7668, 659.004, 0.054, 0.0000000E+000, 0.0000000E+000, 0.00450049
 7680, 660.004, 0.054, 0.0000000E+000, 0.0000000E+000, 0.00450048
 7692, 661.004, 0.054, 0.0000000E+000, 0.0000000E+000, 0.00450047
 7704, 662.004, 0.054, 0.0000000E+000, 0.0000000E+000, 0.00450018
 7716, 663.004, 0.054, 0.0000000E+000, 0.0000000E+000, 0.0045005
 7728, 664.004, 0.054, 0.0000000E+000, 0.0000000E+000, 0.00449987
 7740, 665.004, 0.054, 0.0000000E+000, 0.0000000E+000, 0.00449955
 7752, 666.004, 0.054, 0.0000000E+000, 0.0000000E+000, 0.0045013
 7764, 667.004, 0.054, 0.0000000E+000, 0.0000000E+000, 0.00450192
 7776, 668.004, 0.054, 0.0000000E+000, 0.0000000E+000, 0.00450194
 7788, 669.004, 0.054, 0.0000000E+000, 0.0000000E+000, 0.00450285
 7800, 670.004, 0.054, 0.0000000E+000, 0.0000000E+000, 0.00450379
 7812, 671.004, 0.054, 0.0000000E+000, 0.0000000E+000, 0.00450367
 7824, 672.004, 0.054, 0.0000000E+000, 0.0000000E+000, 0.00450196
 7836, 673.004, 0.054, 0.0000000E+000, 0.0000000E+000, 0.00449833
 7848, 674.004, 0.054, 0.0000000E+000, 0.0000000E+000, 0.00449639
 7860, 675.004, 0.054, 0.0000000E+000, 0.0000000E+000, 0.00449633
 7872, 676.004, 0.054, 0.0000000E+000, 0.0000000E+000, 0.00449529
 7884, 677.004, 0.054, 0.0000000E+000, 0.0000000E+000, 0.00449672
 7896, 678.004, 0.054, 0.0000000E+000, 0.0000000E+000, 0.00449877
 7908, 679.004, 0.054, 0.0000000E+000, 0.0000000E+000, 0.00450019
 7920, 680.004, 0.054, 0.0000000E+000, 0.0000000E+000, 0.00450419
 7932, 681.004, 0.054, 0.0000000E+000, 0.0000000E+000, 0.00450674
 7944, 682.004, 0.054, 0.0000000E+000, 0.0000000E+000, 0.00450599
 7956, 683.004, 0.054, 0.0000000E+000, 0.0000000E+000, 0.00450484
 7968, 684.004, 0.054, 0.0000000E+000, 0.0000000E+000, 0.00450307
 7980, 685.004, 0.054, 0.0000000E+000, 0.0000000E+000, 0.00450092
 7992, 686.004, 0.054, 0.0000000E+000, 0.0000000E+000, 0.00450032
 8004, 687.004, 0.054, 0.0000000E+000, 0.0000000E+000, 0.00449876
 8016, 688.004, 0.054, 0.0000000E+000, 0.0000000E+000, 0.004499
 8028, 689.004, 0.054, 0.0000000E+000, 0.0000000E+000, 0.00449987
 8040, 690.004, 0.054, 0.0000000E+000, 0.0000000E+000, 0.00449949
 8052, 691.004, 0.054, 0.0000000E+000, 0.0000000E+000, 0.00450128
 8064, 692.004, 0.054, 0.0000000E+000, 0.0000000E+000, 0.00450224
 8076, 693.004, 0.054, 0.0000000E+000, 0.0000000E+000, 0.00450163
 8088, 694.004, 0.054, 0.0000000E+000, 0.0000000E+000, 0.00450265
 8100, 695.004, 0.054, 0.0000000E+000, 0.0000000E+000, 0.00450148
 8112, 696.004, 0.054, 0.0000000E+000, 0.0000000E+000, 0.0044997
 8124, 697.004, 0.054, 0.0000000E+000, 0.0000000E+000, 0.00449881
 8136, 698.004, 0.054, 0.0000000E+000, 0.0000000E+000, 0.00449966
 8148, 699.004, 0.054, 0.0000000E+000, 0.0000000E+000, 0.00449883
 8160, 700.004, 0.054, 0.0000000E+000, 0.0000000E+000, 0.00449917
 8172, 701.004, 0.054, 0.0000000E+000, 0.0000000E+000, 0.00450158
 8184, 702.004, 0.054, 0.0000000E+000, 0.0000000E+000, 0.00450312
 8196, 703.004, 0.054, 0.0000000E+000, 0.0000000E+000, 0.00450287
 8208, 704.004, 0.054, 0.0000000E+000, 0.0000000E+000, 0.00450348
 8220, 705.004, 0.054, 0.0000000E+000, 0.0000000E+000, 0.00450322
 8232, 706.004, 0.054, 0.0000000E+000, 0.0000000E+000, 0.0045036
 8244, 707.004, 0.054, 0.0000000E+000, 0.0000000E+000, 0.00450153
 8256, 708.004, 0.054, 0.0000000E+000, 0.0000000E+000, 0.00450091
 8268, 709.004, 0.054, 0.0000000E+000, 0.0000000E+000, 0.00449997
 8280, 710.004, 0.054, 0.0000000E+000, 0.0000000E+000, 0.00449877
 8292, 711.004, 0.054, 0.0000000E+000, 0.0000000E+000, 0.00449773
 8304, 712.004, 0.054, 0.0000000E+000, 0.0000000E+000, 0.00450124
 8316, 713.004, 0.054, 0.0000000E+000, 0.0000000E+000, 0.00450282
 8328, 714.004, 0.054, 0.0000000E+000, 0.0000000E+000, 0.00450371
 8340, 715.004, 0.054, 0.0000000E+000, 0.0000000E+000, 0.00450684
 8352, 716.004, 0.054, 0.0000000E+000, 0.0000000E+000, 0.0045073
 8364, 717.004, 0.054, 0.0000000E+000, 0.0000000E+000, 0.00450409
 8376, 718.004, 0.054, 0.0000000E+000, 0.0000000E+000, 0.00450013
 8388, 719.004, 0.054, 0.0000000E+000, 0.0000000E+000, 0.00449849
 8400, 720.004, 0.054, 0.0000000E+000, 0.0000000E+000, 0.00449724
 8412, 721.004, 0.054, 0.0000000E+000, 0.0000000E+000, 0.00449591
 8424, 722.004, 0.054, 0.0000000E+000, 0.0000000E+000, 0.00449673
 8436, 723.004, 0.054, 0.0000000E+000, 0.0000000E+000, 0.00449851
 8448, 724.004, 0.054, 0.0000000E+000, 0.0000000E+000, 0.00450029
 8460, 725.004, 0.054, 0.0000000E+000, 0.0000000E+000, 0.00450124
 8472, 726.004, 0.054, 0.0000000E+000, 0.0000000E+000, 0.00450224
 8484, 727.004, 0.054, 0.0000000E+000, 0.0000000E+000, 0.00450288
 8496, 728.004, 0.054, 0.0000000E+000, 0.0000000E+000, 0.00450325
 8508, 729.004, 0.054, 0.0000000E+000, 0.0000000E+000, 0.00450175
 8520, 730.004, 0.054, 0.0000000E+000, 0.0000000E+000, 0.00450056
 8532, 731.004, 0.054, 0.0000000E+000, 0.0000000E+000, 0.00450051
 8544, 732.004, 0.054, 0.0000000E+000, 0.0000000E+000, 0.0044999
 8556, 733.004, 0.054, 0.0000000E+000, 0.0000000E+000, 0.00449956
 8568, 734.004, 0.054, 0.0000000E+000, 0.0000000E+000, 0.00449987
 8580, 735.004, 0.054, 0.0000000E+000, 0.0000000E+000, 0.00450018
 8592, 736.004, 0.054, 0.0000000E+000, 0.0000000E+000, 0.00449926
 8604, 737.004, 0.054, 0.0000000E+000, 0.0000000E+000, 0.00450043
 8616, 738.004, 0.054, 0.0000000E+000, 0.0000000E+000, 0.00450165
 8628, 739.004, 0.054, 0.0000000E+000, 0.0000000E+000, 0.00450314
 8640, 740.004, 0.054, 0.0000000E+000, 0.0000000E+000, 0.0045044
 8652, 741.004, 0.054, 0.0000000E+000, 0.0000000E+000, 0.00450423
 8664, 742.004, 0.054, 0.0000000E+000, 0.0000000E+000, 0.00450366
 8676, 743.004, 0.054, 0.0000000E+000, 0.0000000E+000, 0.00450072
 8688, 744.004, 0.054, 0.0000000E+000, 0.0000000E+000, 0.00449824
 8700, 745.004, 0.054, 0.0000000E+000, 0.0000000E+000, 0.00449508
 8712, 746.004, 0.054, 0.0000000E+000, 0.0000000E+000, 0.00449528
 8724, 747.004, 0.054, 0.0000000E+000, 0.0000000E+000, 0.00449707
 8736, 748.004, 0.054, 0.0000000E+000, 0.0000000E+000, 0.00450127
 8748, 749.004, 0.054, 0.0000000E+000, 0.0000000E+000, 0.00450217
 8760, 750.004, 0.054, 0.0000000E+000, 0.0000000E+000, 0.00450443
 8772, 751.004, 0.054, 0.0000000E+000, 0.0000000E+000, 0.00450527
 8784, 752.004, 0.054, 0.0000000E+000, 0.0000000E+000, 0.00450704
 8796, 753.004, 0.054, 0.0000000E+000, 0.0000000E+000, 0.0045072
 8808, 754.004, 0.054, 0.0000000E+000, 0.0000000E+000, 0.00450676
 8820, 755.004, 0.054, 0.0000000E+000, 0.0000000E+000, 0.00450377
 8832, 756.004, 0.054, 0.0000000E+000, 0.0000000E+000, 0.00450026
 8844, 757.004, 0.054, 0.0000000E+000, 0.0000000E+000, 0.00449653
 8856, 758.004, 0.054, 0.0000000E+000, 0.0000000E+000, 0.00449522
 8868, 759.004, 0.054, 0.0000000E+000, 0.0000000E+000, 0.00449252
 8880, 760.004, 0.054, 0.0000000E+000, 0.0000000E+000, 0.00449362
 8892, 761.004, 0.054, 0.0000000E+000, 0.0000000E+000, 0.00449836
 8904, 762.004, 0.054, 0.0000000E+000, 0.0000000E+000, 0.00450271
 8916, 763.004, 0.054, 0.0000000E+000, 0.0000000E+000, 0.004507
 8928, 764.004, 0.054, 0.0000000E+000, 0.0000000E+000, 0.00450234
 8940, 765.004, 0.054, 0.0000000E+000, 0.0000000E+000, 0.00450417
 8952, 766.004, 0.054, 0.0000000E+000, 0.0000000E+000, 0.00450237
 8964, 767.004, 0.054, 0.0000000E+000, 0.0000000E+000, 0.00450066
 8976, 768.004, 0.054, 0.0000000E+000, 0.0000000E+000, 0.00450015
 8988, 769.004, 0.054, 0.0000000E+000, 0.0000000E+000, 0.00450011
 9000, 770.004, 0.054, 0.0000000E+000, 0.0000000E+000, 0.00450054
 9012, 771.004, 0.054, 0.0000000E+000, 0.0000000E+000, 0.00450341
 9024, 772.004, 0.054, 0.0000000E+000, 0.0000000E+000, 0.00450518
 9036, 773.004, 0.054, 0.0000000E+000, 0.0000000E+000, 0.00450657
 9048, 774.004, 0.054, 0.0000000E+000, 0.0000000E+000, 0.00450476
 9060, 775.004, 0.054, 0.0000000E+000, 0.0000000E+000, 0.00450548
 9072, 776.004, 0.054, 0.0000000E+000, 0.0000000E+000, 0.00450315
 9084, 777.004, 0.054, 0.0000000E+000, 0.0000000E+000, 0.00450139
 9096, 778.004, 0.054, 0.0000000E+000, 0.0000000E+000, 0.00449651
 9108, 779.004, 0.054, 0.0000000E+000, 0.0000000E+000, 0.00449283
 9120, 780.004, 0.054, 0.0000000E+000, 0.0000000E+000, 0.00449009
 9132, 781.004, 0.054, 0.0000000E+000, 0.0000000E+000, 0.00449598
 9144, 782.004, 0.054, 0.0000000E+000, 0.0000000E+000, 0.00449916
 9156, 783.004, 0.054, 0.0000000E+000, 0.0000000E+000, 0.00450205
 9168, 784.004, 0.054, 0.0000000E+000, 0.0000000E+000, 0.00450291
 9180, 785.004, 0.054, 0.0000000E+000, 0.0000000E+000, 0.0045055
 9192, 786.004, 0.054, 0.0000000E+000, 0.0000000E+000, 0.004502
 9204, 787.004, 0.054, 0.0000000E+000, 0.0000000E+000, 0.0045006
 9216, 788.004, 0.054, 0.0000000E+000, 0.0000000E+000, 0.0044968
 9228, 789.004, 0.054, 0.0000000E+000, 0.0000000E+000, 0.00449663
 9240, 790.004, 0.054, 0.0000000E+000, 0.0000000E+000, 0.00450013
 9252, 791.004, 0.054, 0.0000000E+000, 0.0000000E+000, 0.00450565
 9264, 792.004, 0.054, 0.0000000E+000, 0.0000000E+000, 0.00450884
 9276, 793.004, 0.054, 0.0000000E+000, 0.0000000E+000, 0.00451267
 9288, 794.004, 0.054, 0.0000000E+000, 0.0000000E+000, 0.00450945
 9300, 795.004, 0.054, 0.0000000E+000, 0.0000000E+000, 0.00450216
 9312, 796.004, 0.054, 0.0000000E+000, 0.0000000E+000, 0.00449837
 9324, 797.004, 0.054, 0.0000000E+000, 0.0000000E+000, 0.00449521
 9336, 798.004, 0.054, 0.0000000E+000, 0.0000000E+000, 0.00449445
 9348, 799.004, 0.054, 0.0000000E+000, 0.0000000E+000, 0.00449677
 9360, 800.004, 0.054, 0.0000000E+000, 0.0000000E+000, 0.00450098