File: Verification/Pyrolysis/tga_analysis_exact.csv
s,C,g/g,g/g,g/g,g/g,g/g,1/s,1/s,1/s,1/s,1/s,W/g,W/g
Time,Temp,Total Mass,component 1 Mass,water Mass,component 2 Mass,residue Mass,Total MLR,component 1 MLR,water MLR,component 2 MLR,residue MLR,MCC,DSC
 0.01, 20.0007, 1, 0.9, 0.0999997, 1.82818e-28, 0.0000000E+000, 3.05029e-05, 4.57044e-26, 3.05029e-05,-1.82818e-26, 0.0000000E+000, 4.11021e-22, 0.336692
 36, 22.9999, 0.998837, 0.9, 0.0988366, 1.19525e-24, 0.0000000E+000, 3.41801e-05, 1.36132e-25, 3.41801e-05,-5.44527e-26, 0.0000000E+000, 1.22423e-21, 0.200999
 72, 25.9999, 0.997536, 0.9, 0.0975355, 4.71078e-24, 0.0000000E+000, 3.81465e-05, 3.96825e-25, 3.81465e-05,-1.5873e-25, 0.0000000E+000, 3.56866e-21, 0.210904
 108, 28.9999, 0.996087, 0.9, 0.0960866, 1.48311e-23, 0.0000000E+000, 4.23966e-05, 1.13243e-24, 4.23966e-05,-4.52973e-25, 0.0000000E+000, 1.0184e-20, 0.221455
 144, 31.9999, 0.99448, 0.9, 0.0944797, 4.33641e-23, 0.0000000E+000, 4.69194e-05, 3.16571e-24, 4.69194e-05,-1.26629e-24, 0.0000000E+000, 2.84693e-20, 0.23262
 180, 34.9999, 0.992705, 0.9, 0.0927053, 1.22198e-22, 0.0000000E+000, 5.16969e-05, 8.67436e-24, 5.16969e-05,-3.46974e-24, 0.0000000E+000, 7.80087e-20, 0.244335
 216, 37.9999, 0.990755, 0.9, 0.0907547, 3.3577e-22, 0.0000000E+000, 5.67028e-05, 2.3311e-23, 5.67028e-05,-9.32441e-24, 0.0000000E+000, 2.09637e-19, 0.256529
 252, 40.9999, 0.98862, 0.9, 0.0886203, 9.03434e-22, 0.0000000E+000, 6.19015e-05, 6.14732e-23, 6.19015e-05,-2.45893e-23, 0.0000000E+000, 5.5283e-19, 0.269096
 288, 43.9999, 0.986296, 0.9, 0.086296, 2.38453e-21, 0.0000000E+000, 6.72473e-05, 1.59163e-22, 6.72473e-05,-6.36654e-23, 0.0000000E+000, 1.43136e-18, 0.281913
 324, 46.9998, 0.983777, 0.9, 0.0837774, 6.17988e-21, 0.0000000E+000, 7.26836e-05, 4.04816e-22, 7.26836e-05,-1.61926e-22, 0.0000000E+000, 3.64052e-18, 0.294824
 360, 49.9998, 0.981062, 0.9, 0.0810624, 1.57367e-20, 0.0000000E+000, 7.81429e-05, 1.01192e-21, 7.81429e-05,-4.04766e-22, 0.0000000E+000, 9.10018e-18, 0.307652
 396, 52.9998, 0.978152, 0.9, 0.0781517, 3.93945e-20, 0.0000000E+000, 8.35461e-05, 2.4872e-21, 8.35461e-05,-9.94882e-22, 0.0000000E+000, 2.23675e-17, 0.32019
 432, 55.9998, 0.975049, 0.9, 0.0750488, 9.69974e-20, 0.0000000E+000, 8.88037e-05, 6.01394e-21, 8.88037e-05,-2.40558e-21, 0.0000000E+000, 5.40835e-17, 0.332207
 468, 58.9998, 0.971761, 0.9, 0.0717607, 2.35008e-19, 0.0000000E+000, 9.38161e-05, 1.43113e-20, 9.38161e-05,-5.72453e-21, 0.0000000E+000, 1.28702e-16, 0.343452
 504, 61.9998, 0.968298, 0.9, 0.0682982, 5.60524e-19, 0.0000000E+000, 9.84754e-05, 3.35321e-20, 9.84754e-05,-1.34128e-20, 0.0000000E+000, 3.01555e-16, 0.353651
 540, 64.9998, 0.964676, 0.9, 0.064676, 1.31666e-18, 0.0000000E+000, 0.000102668, 7.73891e-20, 0.000102668,-3.09556e-20, 0.0000000E+000, 6.95962e-16, 0.362527
 576, 67.9998, 0.960913, 0.9, 0.0609131, 3.04717e-18, 0.0000000E+000, 0.000106277, 1.75999e-19, 0.000106277,-7.03997e-20, 0.0000000E+000, 1.58277e-15, 0.369794
 612, 70.9998, 0.957032, 0.9, 0.0570324, 6.95076e-18, 0.0000000E+000, 0.000109188, 3.94567e-19, 0.000109188,-1.57827e-19, 0.0000000E+000, 3.54835e-15, 0.375178
 648, 73.9998, 0.953061, 0.9, 0.0530612, 1.5633e-17, 0.0000000E+000, 0.00011129, 8.72312e-19, 0.00011129,-3.48925e-19, 0.0000000E+000, 7.84472e-15, 0.37842
 684, 76.9998, 0.94903, 0.9, 0.0490304, 3.46802e-17, 0.0000000E+000, 0.000112484, 1.90247e-18, 0.000112484,-7.60989e-19, 0.0000000E+000, 1.7109e-14, 0.379294
 720, 79.9998, 0.944974, 0.9, 0.0449742, 7.59111e-17, 0.0000000E+000, 0.000112688, 4.0946e-18, 0.000112688,-1.63784e-18, 0.0000000E+000, 3.68228e-14, 0.37762
 756, 82.9998, 0.94093, 0.9, 0.0409295, 1.64005e-16, 0.0000000E+000, 0.000111838, 8.69954e-18, 0.000111838,-3.47982e-18, 0.0000000E+000, 7.82352e-14, 0.373275
 792, 85.9998, 0.936935, 0.9, 0.0369349, 3.4985e-16, 0.0000000E+000, 0.000109901, 1.82522e-17, 0.000109901,-7.30086e-18, 0.0000000E+000, 1.64142e-13, 0.366204
 828, 88.9998, 0.93303, 0.9, 0.0330298, 7.37077e-16, 0.0000000E+000, 0.000106874, 3.78268e-17, 0.000106874,-1.51307e-17, 0.0000000E+000, 3.40178e-13, 0.356437
 864, 91.9998, 0.929253, 0.9, 0.0292528, 1.53421e-15, 0.0000000E+000, 0.000102786, 7.74615e-17, 0.000102786,-3.09846e-17, 0.0000000E+000, 6.96612e-13, 0.344088
 900, 94.9998, 0.925641, 0.9, 0.0256411, 3.15591e-15, 0.0000000E+000, 9.7706e-05, 1.56783e-16, 9.7706e-05,-6.27131e-17, 0.0000000E+000, 1.40995e-12, 0.329359
 936, 97.9998, 0.922229, 0.9, 0.0222287, 6.41736e-15, 0.0000000E+000, 9.17375e-05, 3.13733e-16, 9.17375e-05,-1.25493e-16, 0.0000000E+000, 2.82141e-12, 0.312546
 972, 101, 0.919045, 0.9, 0.0190451, 1.29033e-14, 0.0000000E+000, 8.50177e-05, 6.20857e-16, 8.50177e-05,-2.48343e-16, 0.0000000E+000, 5.58338e-12, 0.294018
 1008, 104, 0.916115, 0.9, 0.0161145, 2.5661e-14, 0.0000000E+000, 7.7713e-05, 1.21537e-15, 7.7713e-05,-4.86147e-16, 0.0000000E+000, 1.09298e-11, 0.274213
 1044, 107, 0.913455, 0.9, 0.0134546, 5.04878e-14, 0.0000000E+000, 7.00115e-05, 2.35407e-15, 7.00115e-05,-9.41626e-16, 0.0000000E+000, 2.11702e-11, 0.253619
 1080, 110, 0.911076, 0.9, 0.0110761, 9.82992e-14, 0.0000000E+000, 6.21141e-05, 4.51267e-15, 6.21141e-05,-1.80507e-15, 0.0000000E+000, 4.05826e-11, 0.232742
 1116, 113, 0.908982, 0.9, 0.0089824, 1.89439e-13, 0.0000000E+000, 5.42243e-05, 8.56362e-15, 5.42243e-05,-3.42545e-15, 0.0000000E+000, 7.70129e-11, 0.212094
 1152, 116, 0.90717, 0.9, 0.00716961, 3.61448e-13, 0.0000000E+000, 4.65375e-05, 1.60913e-14, 4.65375e-05,-6.43653e-15, 0.0000000E+000, 1.4471e-10, 0.192153
 1188, 119, 0.905627, 0.9, 0.00562721, 6.82936e-13, 0.0000000E+000, 3.92306e-05, 2.99457e-14, 3.92306e-05,-1.19783e-14, 0.0000000E+000, 2.69302e-10, 0.173343
 1224, 122, 0.904339, 0.9, 0.00433872, 1.27811e-12, 0.0000000E+000, 3.24524e-05, 5.52054e-14, 3.24524e-05,-2.20821e-14, 0.0000000E+000, 4.96463e-10, 0.156018
 1260, 125, 0.903283, 0.9, 0.00328296, 2.36974e-12, 0.0000000E+000, 2.63175e-05, 1.00838e-13, 2.63175e-05,-4.03353e-14, 0.0000000E+000, 9.0684e-10, 0.14044
 1296, 128, 0.902435, 0.9, 0.00243528, 4.35384e-12, 0.0000000E+000, 2.09012e-05, 1.82539e-13, 2.09012e-05,-7.30155e-14, 0.0000000E+000, 1.64157e-09, 0.12677
 1332, 131, 0.901769, 0.9, 0.00176906, 7.92809e-12, 0.0000000E+000, 1.62393e-05, 3.27536e-13, 1.62393e-05,-1.31014e-13, 0.0000000E+000, 2.94553e-09, 0.115069
 1368, 134, 0.901257, 0.9, 0.00125706, 1.43112e-11, 0.0000000E+000, 1.23297e-05, 5.82667e-13, 1.23297e-05,-2.33067e-13, 0.0000000E+000, 5.23994e-09, 0.105308
 1404, 137, 0.900873, 0.9, 0.000872735, 2.56139e-11, 0.0000000E+000, 9.1376e-06, 1.02783e-12, 9.1376e-06,-4.11133e-13, 0.0000000E+000, 9.24333e-09, 0.0973774
 1440, 140, 0.900591, 0.9, 0.000591291, 4.54621e-11, 1.83146e-38, 6.60224e-06, 1.79823e-12, 6.60224e-06,-7.19292e-13, 0.0000000E+000, 1.61715e-08, 0.0911092
 1476, 143, 0.90039, 0.9, 0.000390453, 8.0034e-11, 9.39628e-38, 4.64513e-06, 3.12079e-12, 4.64513e-06,-1.24832e-12, 0.0000000E+000, 2.80653e-08, 0.0862934
 1512, 146, 0.900251, 0.9, 0.000250974, 1.39774e-10, 4.71016e-37, 3.17835e-06, 5.3735e-12, 3.17834e-06,-2.1494e-12,-2.09367e-38, 4.8324e-08, 0.0826996
 1548, 149, 0.900157, 0.9, 0.00015682, 2.42204e-10, 2.30809e-36, 2.11219e-06, 9.18112e-12, 2.11218e-06,-3.67245e-12,-1.01155e-37, 8.2566e-08, 0.0800995
 1584, 152, 0.900095, 0.9, 9.51242e-05, 4.16494e-10, 1.10615e-35, 1.36146e-06, 1.55686e-11, 1.36145e-06,-6.22746e-12,-4.78026e-37, 1.40009e-07, 0.078275
 1620, 155, 0.900056, 0.9, 5.59351e-05, 7.10851e-10, 5.18705e-35, 8.49994e-07, 2.62055e-11, 8.49978e-07,-1.04822e-11,-2.21058e-36, 2.35666e-07, 0.0770385
 1656, 158, 0.900032, 0.9, 3.18382e-05, 1.20437e-09, 2.38106e-34, 5.13268e-07, 4.37911e-11, 5.13241e-07,-1.75164e-11,-1.0008e-35, 3.93814e-07, 0.0762269
 1692, 161, 0.900018, 0.9, 1.75159e-05, 2.02589e-09, 1.07043e-33, 2.99339e-07, 7.26604e-11, 2.99295e-07,-2.90642e-11,-4.43779e-35, 6.53437e-07, 0.0757127
 1728, 164, 0.900009, 0.9, 9.29956e-06, 3.38385e-09, 4.7148e-33, 1.6837e-07, 1.19727e-10, 1.68298e-07,-4.78907e-11,-1.92818e-34, 1.07671e-06, 0.0753998
 1764, 167, 0.900005, 0.9, 4.75721e-06, 5.6132e-09, 2.0355e-32, 9.12301e-08, 1.95942e-10, 9.11126e-08,-7.8377e-11,-8.21242e-34, 1.76211e-06, 0.0752164
 1800, 170, 0.900002, 0.9, 2.34095e-06, 9.24852e-09, 8.61704e-32, 4.76037e-08, 3.18544e-10, 4.74125e-08,-1.27418e-10,-3.43015e-33, 2.86467e-06, 0.0751123
 1836, 173, 0.900001, 0.9, 1.10625e-06, 1.51376e-08, 3.57844e-31, 2.39844e-08, 5.14483e-10, 2.36757e-08,-2.05793e-10,-1.40554e-32, 4.62676e-06, 0.0750565
 1872, 176, 0.9, 0.9, 5.01171e-07, 2.46161e-08, 1.4583e-30, 1.18212e-08, 8.25643e-10, 1.13258e-08,-3.30257e-10,-5.65237e-32, 7.42503e-06, 0.0750272
 1908, 179, 0.9, 0.9, 2.17284e-07, 3.97758e-08, 5.83413e-30, 5.97116e-09, 1.3167e-09, 5.18114e-09,-5.26681e-10,-2.23169e-31, 1.18411e-05, 0.075014
 1944, 182, 0.9, 0.9, 8.99887e-08, 6.38716e-08, 2.29215e-29, 3.5147e-09, 2.08694e-09, 2.26254e-09,-8.34777e-10,-8.65392e-31, 1.87679e-05, 0.0750076
 1980, 185, 0.9, 0.9, 3.55356e-08, 1.01939e-07, 8.84711e-29, 2.91413e-09, 3.28787e-09, 9.41412e-10,-1.31515e-09,-3.29701e-30, 2.95678e-05, 0.0750058
 2016, 188, 0.9, 0.9, 1.33545e-08, 1.6172e-07, 3.35583e-28, 3.46211e-09, 5.14931e-09, 3.72526e-10,-2.05972e-09,-1.23454e-29, 4.63079e-05, 0.0750063
 2052, 191, 0.9, 0.899999, 4.76686e-09, 2.55056e-07, 1.25137e-27, 4.95072e-09, 8.01799e-09, 1.39922e-10,-3.2072e-09,-4.54478e-29, 7.2106e-05, 0.0750085
 2088, 194, 0.899999, 0.899999, 1.61293e-09, 3.99944e-07, 4.58881e-27, 7.49819e-09, 1.2414e-08, 4.97862e-11,-4.9656e-09,-1.64546e-28, 0.000111639, 0.0750128
 2124, 197, 0.899999, 0.899998, 5.16286e-10, 6.23598e-07, 1.65532e-26, 1.14847e-08, 1.91133e-08, 1.67474e-11,-7.64531e-09,-5.86089e-28, 0.000171886, 0.0750212
 2160, 200, 0.899999, 0.899998, 1.5601e-10, 9.66936e-07, 5.8758e-26, 1.75657e-08, 2.92672e-08, 5.31493e-12,-1.17069e-08,-2.05437e-27, 0.000263201, 0.0750306
 2196, 203, 0.899998, 0.899996, 4.44099e-11, 1.49116e-06, 2.05299e-25, 2.67469e-08, 4.45755e-08, 1.58798e-12,-1.78302e-08,-7.08865e-27, 0.000400868, 0.0750465
 2232, 206, 0.899997, 0.899994, 1.18829e-11, 2.28733e-06, 7.06269e-25, 4.05208e-08, 6.7534e-08, 4.45705e-13,-2.70136e-08,-2.4085e-26, 0.000607334, 0.0750708
 2268, 209, 0.899995, 0.899991, 2.98211e-12, 3.49022e-06, 2.39299e-24, 6.10738e-08, 1.01789e-07, 1.17259e-13,-4.07158e-08,-8.0603e-26, 0.000915395, 0.0751065
 2304, 212, 0.899992, 0.899987, 7.00317e-13, 5.29833e-06, 7.98774e-24, 9.15862e-08, 1.52644e-07, 2.88512e-14,-6.10575e-08,-2.65767e-25, 0.00137273, 0.0751593
 2340, 215, 0.899988, 0.89998, 1.53544e-13, 8.00257e-06, 2.62746e-23, 1.3666e-07, 2.27767e-07, 6.62371e-15,-9.11068e-08,-8.636e-25, 0.00204831, 0.0752379
 2376, 218, 0.899982, 0.89997, 3.13557e-14, 1.20271e-05, 8.5191e-23, 2.02922e-07, 3.38203e-07, 1.41559e-15,-1.35281e-07,-2.76632e-24, 0.00304147, 0.0753518
 2412, 221, 0.899973, 0.899955, 5.94979e-15, 1.79878e-05, 2.7234e-22, 2.99867e-07, 4.99779e-07, 2.80957e-16,-1.99911e-07,-8.73745e-24, 0.00449452, 0.0755208
 2448, 224, 0.89996, 0.899933, 1.04647e-15, 2.67739e-05, 8.58612e-22, 4.4104e-07, 7.35067e-07, 5.16588e-17,-2.94027e-07,-2.72187e-23, 0.00661048, 0.0757637
 2484, 227, 0.89994, 0.899901, 1.70181e-16, 3.96644e-05, 2.6703e-21, 6.45673e-07, 1.07612e-06, 8.77764e-18,-4.30449e-07,-8.36485e-23, 0.00967759, 0.0761183
 2520, 230, 0.899912, 0.899854, 2.55243e-17, 5.84901e-05, 8.19418e-21, 9.40949e-07, 1.56825e-06, 1.37481e-18,-6.27299e-07,-2.53665e-22, 0.0141033, 0.0766265
 2556, 233, 0.899871, 0.899785, 3.52154e-18, 8.58595e-05, 2.48161e-20, 1.36512e-06, 2.2752e-06, 1.9798e-19,-9.10078e-07,-7.59235e-22, 0.0204609, 0.0773568
 2592, 236, 0.899812, 0.899686, 7.9895e-19, 0.000125473, 7.419e-20, 1.97176e-06, 3.28627e-06, 0.0000000E+000,-1.31451e-06,-2.24338e-21, 0.0295535, 0.0783988
 2628, 239, 0.899726, 0.899544, 7.9895e-19, 0.000182559, 2.18996e-19, 2.83561e-06, 4.72601e-06, 0.0000000E+000,-1.8904e-06,-6.54539e-21, 0.0425011, 0.0798806
 2664, 242, 0.899603, 0.899339, 7.9895e-19, 0.000264467, 6.38405e-19, 4.0604e-06, 6.76734e-06, 0.0000000E+000,-2.70694e-06,-1.8861e-20, 0.0608588, 0.081978
 2700, 245, 0.899428, 0.899046, 7.98433e-19, 0.000381488, 1.8383e-18, 5.78953e-06, 9.64921e-06, 0.0000000E+000,-3.85969e-06,-5.36883e-20, 0.0867756, 0.0849356
 2736, 248, 0.899178, 0.89863, 7.98433e-19, 0.000547971, 5.22978e-18, 8.22019e-06, 1.37003e-05, 0.0000000E+000,-5.48013e-06,-1.50994e-19, 0.123207, 0.0890855
 2772, 251, 0.898824, 0.89804, 7.97866e-19, 0.000783823, 1.4702e-17, 1.16223e-05, 1.93705e-05, 0.0000000E+000,-7.74819e-06,-4.19648e-19, 0.174199, 0.0948856
 2808, 254, 0.898325, 0.897209, 7.97866e-19, 0.00111654, 4.08479e-17, 1.63632e-05, 2.7272e-05, 0.0000000E+000,-1.09088e-05,-1.15272e-18, 0.245258, 0.102955
 2844, 257, 0.897624, 0.89604, 7.9665e-19, 0.00158394, 1.12184e-16, 2.29401e-05, 3.82336e-05, 0.0000000E+000,-1.52934e-05,-3.12996e-18, 0.343835, 0.114131
 2880, 260, 0.896643, 0.894406, 7.96013e-19, 0.0022377, 3.04596e-16, 3.20213e-05, 5.33688e-05, 0.0000000E+000,-2.13475e-05,-8.40199e-18, 0.479947, 0.12954
 2916, 263, 0.895278, 0.89213, 7.94697e-19, 0.00314812, 8.17703e-16, 4.44978e-05, 7.41629e-05, 0.0000000E+000,-2.96652e-05,-2.22993e-17, 0.666949, 0.150676
 2952, 266, 0.893385, 0.888975, 7.93336e-19, 0.00441017, 2.17061e-15, 6.15464e-05, 0.000102577, 0.0000000E+000,-4.10309e-05,-5.85178e-17, 0.92248, 0.179512
 2988, 269, 0.890773, 0.884622, 7.90517e-19, 0.00615122, 5.69773e-15, 8.47028e-05, 0.000141171, 0.0000000E+000,-5.64685e-05,-1.51834e-16, 1.26956, 0.218615
 3024, 272, 0.887189, 0.878649, 7.87598e-19, 0.00854059, 1.47894e-14, 0.00011594, 0.000193233, 0.0000000E+000,-7.72931e-05,-3.89495e-16, 1.73775, 0.271278
 3060, 275, 0.882299, 0.870498, 7.83081e-19, 0.0118009, 3.79576e-14, 0.000157738, 0.000262897, 0.0000000E+000,-0.000105159,-9.87683e-16, 2.36423, 0.341628
 3096, 278, 0.875669, 0.859448, 7.77658e-19, 0.0162209, 9.631e-14, 0.000213128, 0.000355213, 0.0000000E+000,-0.000142085,-2.47511e-15, 3.19444, 0.434694
 3132, 281, 0.866747, 0.844579, 7.69705e-19, 0.0221685, 2.41518e-13, 0.000285652, 0.000476086, 0.0000000E+000,-0.000190434,-6.12696e-15, 4.28145, 0.556335
 3168, 284, 0.854849, 0.824748, 7.59117e-19, 0.0301008, 5.98343e-13, 0.000379177, 0.000631962, 0.0000000E+000,-0.000252785,-1.49727e-14, 5.68324, 0.712911
 3204, 287, 0.839148, 0.798581, 7.45001e-19, 0.0405678, 1.46355e-12, 0.000497433, 0.000829056, 0.0000000E+000,-0.000331622,-3.60893e-14, 7.45572, 0.910498
 3240, 289.999, 0.818702, 0.764504, 7.26488e-19, 0.0541985, 3.5315e-12, 0.00064311, 0.00107185, 0.0000000E+000,-0.00042874,-8.56977e-14, 9.63917, 1.15338
 3276, 292.999, 0.792511, 0.720851, 7.03636e-19, 0.0716596, 8.39674e-12, 0.000816315, 0.00136052, 0.0000000E+000,-0.00054421,-2.00167e-13, 12.2352, 1.44144
 3312, 295.999, 0.75965, 0.666083, 6.74116e-19, 0.0935668, 1.96435e-11, 0.00101225, 0.00168708, 0.0000000E+000,-0.00067483,-4.58954e-13, 15.1719, 1.76632
 3348, 298.999, 0.719502, 0.599171, 6.38381e-19, 0.120332, 4.51301e-11, 0.00121819, 0.00203031, 0.0000000E+000,-0.000812125,-1.03037e-12, 18.2586, 2.10644
 3384, 301.999, 0.672096, 0.52016, 5.96359e-19, 0.151936, 1.01587e-10, 0.00141056, 0.00235093, 0.0000000E+000,-0.00094037,-2.25795e-12, 21.1419, 2.42217
 3420, 304.999, 0.618526, 0.430877, 5.49116e-19, 0.187649, 2.23421e-10, 0.00155382, 0.0025897, 0.0000000E+000,-0.00103588,-4.81241e-12, 23.2892, 2.65417
 3456, 307.999, 0.561333, 0.335555, 4.97934e-19, 0.225778, 4.78585e-10, 0.00160448, 0.00267413, 0.0000000E+000,-0.00106965,-9.93619e-12, 24.0485, 2.73028
 3492, 310.999, 0.504594, 0.24099, 4.48143e-19, 0.263604, 9.95202e-10, 0.00152349, 0.00253915, 0.0000000E+000,-0.00101566,-1.97976e-11, 22.8346, 2.58631
 3528, 313.999, 0.453403, 0.155672, 4.0257e-19, 0.297731, 2.0029e-09, 0.00129745, 0.00216242, 0.0000000E+000,-0.000864969,-3.79529e-11, 19.4467, 2.20134
 3564, 316.999, 0.412544, 0.0875725, 3.65979e-19, 0.324971, 3.89288e-09, 0.000959572, 0.00159929, 0.0000000E+000,-0.000639714,-6.99354e-11, 14.3824, 1.63211
 3600, 319.999, 0.384691, 0.041151, 3.4132e-19, 0.34354, 7.30375e-09, 0.000591185, 0.000985306, 0.0000000E+000,-0.000394122,-1.24154e-10, 8.86089, 1.01493
 3636, 323, 0.369186, 0.0153103, 3.27658e-19, 0.353876, 1.32529e-08, 0.000287595, 0.000479323, 0.0000000E+000,-0.000191728,-2.13647e-10, 4.31058, 0.508183
 3672, 326, 0.362526, 0.00421056, 3.21645e-19, 0.358316, 2.33587e-08, 0.000103143, 0.000171901, 0.0000000E+000,-6.8758e-05,-3.59527e-10, 1.54594, 0.201167
 3708, 329, 0.36047, 0.00078393, 3.19978e-19, 0.359686, 4.02283e-08, 2.49793e-05, 4.16265e-05, 0.0000000E+000,-1.66466e-05,-5.96766e-10, 0.374399, 0.0713763
 3744, 332, 0.360053, 8.83248e-05, 3.19408e-19, 0.359964, 6.80988e-08, 3.65615e-06, 6.0843e-06, 0.0000000E+000,-2.42717e-06,-9.82617e-10, 0.0547997, 0.0360428
 3780, 335, 0.360002, 5.22081e-06, 3.19408e-19, 0.359997, 1.13846e-07, 2.88344e-07, 4.65377e-07, 0.0000000E+000,-1.75425e-07,-1.60892e-09, 0.0043218, 0.0304705
 3816, 338, 0.359999, 1.35044e-07, 3.19408e-19, 0.359999, 1.88551e-07, 2.41781e-08, 1.55385e-08, 0.0000000E+000, 1.1261e-08,-2.62146e-09, 0.00036239, 0.0300352
 3852, 341, 0.359998, 1.21478e-09, 3.19408e-19, 0.359998, 3.09955e-07, 2.41963e-08, 1.7999e-10, 0.0000000E+000, 2.82672e-08,-4.25088e-09, 0.000362663, 0.0300298
 3888, 344, 0.359997, 2.84212e-12, 3.19408e-19, 0.359997, 5.0632e-07, 3.88779e-08, 5.40979e-13, 0.0000000E+000, 4.57382e-08,-6.86076e-09, 0.000582717, 0.0300482
 3924, 347, 0.359995, 1.19886e-15, 3.19408e-19, 0.359995, 8.22452e-07, 6.2457e-08, 2.92477e-16, 0.0000000E+000, 7.34788e-08,-1.10218e-08, 0.000936128, 0.0300774
 3960, 350, 0.359992, 3.19336e-19, 3.19408e-19, 0.359991, 1.32907e-06, 9.988e-08, 0.0000000E+000, 0.0000000E+000, 1.17506e-07,-1.76259e-08, 0.00149704, 0.0301222
 3996, 353, 0.359988, 3.19336e-19, 3.19408e-19, 0.359986, 2.13727e-06, 1.59008e-07, 0.0000000E+000, 0.0000000E+000, 1.87068e-07,-2.80603e-08, 0.00238327, 0.0301955
 4032, 356, 0.359981, 3.19336e-19, 3.19408e-19, 0.359977, 3.42083e-06, 2.52018e-07, 0.0000000E+000, 0.0000000E+000, 2.96491e-07,-4.44737e-08, 0.00377733, 0.0303107
 4068, 359, 0.359969, 3.19336e-19, 3.19408e-19, 0.359964, 5.45039e-06, 3.97684e-07, 0.0000000E+000, 0.0000000E+000, 4.67863e-07,-7.01795e-08, 0.00596063, 0.0304885
 4104, 362, 0.359951, 3.19336e-19, 3.19408e-19, 0.359942, 8.64558e-06, 6.24833e-07, 0.0000000E+000, 0.0000000E+000, 7.35097e-07,-1.10265e-07, 0.00936522, 0.0307672
 4140, 365, 0.359923, 3.19336e-19, 3.19408e-19, 0.359909, 1.36542e-05, 9.77529e-07, 0.0000000E+000, 0.0000000E+000, 1.15003e-06,-1.72505e-07, 0.0146516, 0.0311948
 4176, 368, 0.359878, 3.19336e-19, 3.19408e-19, 0.359857, 2.14722e-05, 1.52284e-06, 0.0000000E+000, 0.0000000E+000, 1.79158e-06,-2.68736e-07, 0.0228249, 0.0318597
 4212, 371, 0.359809, 3.19336e-19, 3.19408e-19, 0.359776, 3.3624e-05, 2.36238e-06, 0.0000000E+000, 0.0000000E+000, 2.77927e-06,-4.1689e-07, 0.0354082, 0.0328781
 4248, 374, 0.359703, 3.19336e-19, 3.19408e-19, 0.35965, 5.24325e-05, 3.64941e-06, 0.0000000E+000, 0.0000000E+000, 4.29342e-06,-6.44013e-07, 0.0546987, 0.0344349
 4284, 377, 0.359539, 3.19336e-19, 3.19408e-19, 0.359457, 8.14226e-05, 5.61395e-06, 0.0000000E+000, 0.0000000E+000, 6.60465e-06,-9.90697e-07, 0.084144, 0.036811
 4320, 380, 0.359286, 3.09813e-19, 3.18522e-19, 0.359161, 0.000125918, 8.59943e-06, 0.0000000E+000, 0.0000000E+000, 1.0117e-05,-1.51755e-06, 0.128891, 0.040412
 4356, 383, 0.358901, 3.09813e-19, 3.18522e-19, 0.358707, 0.000193917, 1.31155e-05, 0.0000000E+000, 0.0000000E+000, 1.543e-05,-2.31449e-06, 0.196579, 0.0458479
 4392, 386, 0.358315, 3.09813e-19, 3.18522e-19, 0.358017, 0.000297378, 1.9913e-05, 0.0000000E+000, 0.0000000E+000, 2.34271e-05,-3.51406e-06, 0.298463, 0.0540087
 4428, 389, 0.357427, 3.09813e-19, 3.17569e-19, 0.356973, 0.000454064, 3.00888e-05, 0.0000000E+000, 0.0000000E+000, 3.53986e-05,-5.3098e-06, 0.450983, 0.0662025
 4464, 392, 0.356089, 3.09813e-19, 3.16586e-19, 0.355399, 0.000690167, 4.52268e-05, 0.0000000E+000, 0.0000000E+000, 5.3208e-05,-7.9812e-06, 0.677876, 0.0842998
 4500, 395, 0.354084, 3.09813e-19, 3.15584e-19, 0.35304, 0.00104396, 6.75782e-05, 0.0000000E+000, 0.0000000E+000, 7.95037e-05,-1.19256e-05, 1.01289, 0.110965
 4536, 398, 0.351099, 3.09813e-19, 3.13543e-19, 0.349529, 0.00157068, 0.000100273, 0.0000000E+000, 0.0000000E+000, 0.000117968,-1.76952e-05, 1.50292, 0.149877
 4572, 401, 0.34669, 3.09813e-19, 3.10427e-19, 0.344341, 0.00234881, 0.000147517, 0.0000000E+000, 0.0000000E+000, 0.000173549,-2.60324e-05, 2.21104, 0.205978
 4608, 404, 0.340239, 2.61952e-19, 3.06218e-19, 0.336752, 0.00348721, 0.00021467, 0.0000000E+000, 0.0000000E+000, 0.000252553,-3.7883e-05, 3.21756, 0.285524
 4644, 407, 0.330919, 2.61952e-19, 2.99862e-19, 0.325788, 0.00513186, 0.000307952, 0.0000000E+000, 0.0000000E+000, 0.000362297,-5.43445e-05, 4.6157, 0.39574
 4680, 410, 0.31768, 2.61952e-19, 2.91398e-19, 0.310211, 0.0074683, 0.000433301, 0.0000000E+000, 0.0000000E+000, 0.000509766,-7.64649e-05, 6.49448, 0.543424
 4716, 413, 0.299298, 2.61952e-19, 2.79898e-19, 0.288585, 0.0107122, 0.000593618, 0.0000000E+000, 0.0000000E+000, 0.000698374,-0.000104756, 8.89736, 0.731692
 4752, 416, 0.274577, 2.61952e-19, 2.63618e-19, 0.259502, 0.0150747, 0.00078345, 0.0000000E+000, 0.0000000E+000, 0.000921705,-0.000138256, 11.7426, 0.953702
 4788, 418.999, 0.242786, 1.55018e-19, 2.42295e-19, 0.222101, 0.0206849, 0.000980881, 0.0000000E+000, 0.0000000E+000, 0.00115398,-0.000173097, 14.7018, 1.1832
 4824, 421.999, 0.204407, 1.55018e-19, 2.1795e-19, 0.17695, 0.0274575, 0.00113944, 0.0000000E+000, 0.0000000E+000, 0.00134051,-0.000201077, 17.0783, 1.36516
 4860, 424.999, 0.162046, 1.55018e-19, 1.90172e-19, 0.127113, 0.0349331, 0.00118961, 0.0000000E+000, 0.0000000E+000, 0.00139954,-0.000209931, 17.8303, 1.41804
 4896, 427.999, 0.120861, 1.55018e-19, 1.63405e-19, 0.0786599, 0.042201, 0.00106651, 0.0000000E+000, 0.0000000E+000, 0.00125472,-0.000188208, 15.9853, 1.26661
 4932, 431, 0.0873971, 9.6636e-21, 1.4171e-19, 0.0392907, 0.0481064, 0.000769385, 0.0000000E+000, 0.0000000E+000, 0.000905158,-0.000135774, 11.5318, 0.911833
 4968, 434, 0.0662759, 9.6636e-21, 1.27877e-19, 0.0144422, 0.0518337, 0.000407183, 0.0000000E+000, 0.0000000E+000, 0.000479039,-7.18558e-05, 6.10301, 0.483222
 5004, 437, 0.0569126, 9.6636e-21, 1.2134e-19, 0.00342662, 0.053486, 0.000138676, 0.0000000E+000, 0.0000000E+000, 0.000163148,-2.44723e-05, 2.07853, 0.167085
 5040, 440, 0.0543707, 9.6636e-21, 1.19723e-19, 0.000436075, 0.0539346, 2.52569e-05, 0.0000000E+000, 0.0000000E+000, 2.97139e-05,-4.45709e-06, 0.378559, 0.034028
 5076, 443, 0.0540195, 9.6636e-21, 1.19723e-19, 2.29301e-05, 0.0539966, 1.89512e-06, 0.0000000E+000, 0.0000000E+000, 2.22955e-06,-3.34433e-07, 0.0284047, 0.00672147
 5112, 446, 0.0540003, 9.6636e-21, 1.19723e-19, 3.45288e-07, 0.0539999, 4.06058e-08, 0.0000000E+000, 0.0000000E+000, 4.77715e-08,-7.16572e-09, 0.000608614, 0.00455024
 5148, 449, 0.054, 9.6636e-21, 1.19723e-19, 8.90777e-10, 0.054, 1.48646e-10, 0.0000000E+000, 0.0000000E+000, 1.74878e-10,-2.62317e-11, 2.22797e-06, 0.0045168
 5184, 452, 0.054, 9.6636e-21, 1.19723e-19, 1.92007e-13, 0.054, 4.53448e-14, 0.0000000E+000, 0.0000000E+000, 5.33468e-14,-8.00202e-15, 6.79645e-10, 0.00449394
 5220, 455, 0.054, 9.6636e-21, 1.19723e-19, 1.27058e-18, 0.054, 4.23582e-19, 0.0000000E+000, 0.0000000E+000, 4.98332e-19,-7.47498e-20, 6.34881e-15, 0.0045001
 5256, 458, 0.054, 9.6636e-21, 1.19723e-19, 1.19574e-19, 0.054, 0.0000000E+000, 0.0000000E+000, 0.0000000E+000, 0.0000000E+000, 0.0000000E+000, 0.0000000E+000, 0.0045001
 5292, 461, 0.054, 9.6636e-21, 1.19723e-19, 1.19574e-19, 0.054, 0.0000000E+000, 0.0000000E+000, 0.0000000E+000, 0.0000000E+000, 0.0000000E+000, 0.0000000E+000, 0.0044995
 5328, 464, 0.054, 9.6636e-21, 1.19723e-19, 1.19574e-19, 0.054, 0.0000000E+000, 0.0000000E+000, 0.0000000E+000, 0.0000000E+000, 0.0000000E+000, 0.0000000E+000, 0.0044998
 5364, 467, 0.054, 9.6636e-21, 1.19723e-19, 1.19574e-19, 0.054, 0.0000000E+000, 0.0000000E+000, 0.0000000E+000, 0.0000000E+000, 0.0000000E+000, 0.0000000E+000, 0.0044998
 5400, 470, 0.054, 9.6636e-21, 1.19723e-19, 1.19574e-19, 0.054, 0.0000000E+000, 0.0000000E+000, 0.0000000E+000, 0.0000000E+000, 0.0000000E+000, 0.0000000E+000, 0.0045001
 5436, 473, 0.054, 9.6636e-21, 1.19723e-19, 1.19574e-19, 0.054, 0.0000000E+000, 0.0000000E+000, 0.0000000E+000, 0.0000000E+000, 0.0000000E+000, 0.0000000E+000, 0.0045004
 5472, 476, 0.054, 9.6636e-21, 1.19723e-19, 1.19574e-19, 0.054, 0.0000000E+000, 0.0000000E+000, 0.0000000E+000, 0.0000000E+000, 0.0000000E+000, 0.0000000E+000, 0.0044995
 5508, 479, 0.054, 9.6636e-21, 1.19723e-19, 1.19574e-19, 0.054, 0.0000000E+000, 0.0000000E+000, 0.0000000E+000, 0.0000000E+000, 0.0000000E+000, 0.0000000E+000, 0.0045001
 5544, 482, 0.054, 9.6636e-21, 1.19723e-19, 1.19574e-19, 0.054, 0.0000000E+000, 0.0000000E+000, 0.0000000E+000, 0.0000000E+000, 0.0000000E+000, 0.0000000E+000, 0.0044998
 5580, 485, 0.054, 9.6636e-21, 1.19723e-19, 1.19574e-19, 0.054, 0.0000000E+000, 0.0000000E+000, 0.0000000E+000, 0.0000000E+000, 0.0000000E+000, 0.0000000E+000, 0.0045001
 5616, 488, 0.054, 9.6636e-21, 1.19723e-19, 1.19574e-19, 0.054, 0.0000000E+000, 0.0000000E+000, 0.0000000E+000, 0.0000000E+000, 0.0000000E+000, 0.0000000E+000, 0.0045001
 5652, 491, 0.054, 9.6636e-21, 1.19723e-19, 1.19574e-19, 0.054, 0.0000000E+000, 0.0000000E+000, 0.0000000E+000, 0.0000000E+000, 0.0000000E+000, 0.0000000E+000, 0.0045004
 5688, 494, 0.054, 9.6636e-21, 1.19723e-19, 1.19574e-19, 0.054, 0.0000000E+000, 0.0000000E+000, 0.0000000E+000, 0.0000000E+000, 0.0000000E+000, 0.0000000E+000, 0.0044998
 5724, 497, 0.054, 9.6636e-21, 1.19723e-19, 1.19574e-19, 0.054, 0.0000000E+000, 0.0000000E+000, 0.0000000E+000, 0.0000000E+000, 0.0000000E+000, 0.0000000E+000, 0.0045001
 5760, 500, 0.054, 9.6636e-21, 1.19723e-19, 1.19574e-19, 0.054, 0.0000000E+000, 0.0000000E+000, 0.0000000E+000, 0.0000000E+000, 0.0000000E+000, 0.0000000E+000, 0.0044998
 5796, 503, 0.054, 9.6636e-21, 1.19723e-19, 1.19574e-19, 0.054, 0.0000000E+000, 0.0000000E+000, 0.0000000E+000, 0.0000000E+000, 0.0000000E+000, 0.0000000E+000, 0.0045001
 5832, 506, 0.054, 9.6636e-21, 1.19723e-19, 1.19574e-19, 0.054, 0.0000000E+000, 0.0000000E+000, 0.0000000E+000, 0.0000000E+000, 0.0000000E+000, 0.0000000E+000, 0.0045001
 5868, 509, 0.054, 9.6636e-21, 1.19723e-19, 1.19574e-19, 0.054, 0.0000000E+000, 0.0000000E+000, 0.0000000E+000, 0.0000000E+000, 0.0000000E+000, 0.0000000E+000, 0.0044998
 5904, 512, 0.054, 9.6636e-21, 1.19723e-19, 1.19574e-19, 0.054, 0.0000000E+000, 0.0000000E+000, 0.0000000E+000, 0.0000000E+000, 0.0000000E+000, 0.0000000E+000, 0.0045004
 5940, 515, 0.054, 9.6636e-21, 1.19723e-19, 1.19574e-19, 0.054, 0.0000000E+000, 0.0000000E+000, 0.0000000E+000, 0.0000000E+000, 0.0000000E+000, 0.0000000E+000, 0.0044998
 5976, 518, 0.054, 9.6636e-21, 1.19723e-19, 1.19574e-19, 0.054, 0.0000000E+000, 0.0000000E+000, 0.0000000E+000, 0.0000000E+000, 0.0000000E+000, 0.0000000E+000, 0.0045004
 6012, 521, 0.054, 9.6636e-21, 1.19723e-19, 1.19574e-19, 0.054, 0.0000000E+000, 0.0000000E+000, 0.0000000E+000, 0.0000000E+000, 0.0000000E+000, 0.0000000E+000, 0.0044998
 6048, 524, 0.054, 9.6636e-21, 1.19723e-19, 1.19574e-19, 0.054, 0.0000000E+000, 0.0000000E+000, 0.0000000E+000, 0.0000000E+000, 0.0000000E+000, 0.0000000E+000, 0.0045004
 6084, 527, 0.054, 9.6636e-21, 1.19723e-19, 1.19574e-19, 0.054, 0.0000000E+000, 0.0000000E+000, 0.0000000E+000, 0.0000000E+000, 0.0000000E+000, 0.0000000E+000, 0.0045001
 6120, 530, 0.054, 9.6636e-21, 1.19723e-19, 1.19574e-19, 0.054, 0.0000000E+000, 0.0000000E+000, 0.0000000E+000, 0.0000000E+000, 0.0000000E+000, 0.0000000E+000, 0.0045001
 6156, 533, 0.054, 9.6636e-21, 1.19723e-19, 1.19574e-19, 0.054, 0.0000000E+000, 0.0000000E+000, 0.0000000E+000, 0.0000000E+000, 0.0000000E+000, 0.0000000E+000, 0.0045001
 6192, 536, 0.054, 9.6636e-21, 1.19723e-19, 1.19574e-19, 0.054, 0.0000000E+000, 0.0000000E+000, 0.0000000E+000, 0.0000000E+000, 0.0000000E+000, 0.0000000E+000, 0.0045001
 6228, 539, 0.054, 9.6636e-21, 1.19723e-19, 1.19574e-19, 0.054, 0.0000000E+000, 0.0000000E+000, 0.0000000E+000, 0.0000000E+000, 0.0000000E+000, 0.0000000E+000, 0.0045001
 6264, 542, 0.054, 9.6636e-21, 1.19723e-19, 1.19574e-19, 0.054, 0.0000000E+000, 0.0000000E+000, 0.0000000E+000, 0.0000000E+000, 0.0000000E+000, 0.0000000E+000, 0.0045001
 6300, 545, 0.054, 9.6636e-21, 1.19723e-19, 1.19574e-19, 0.054, 0.0000000E+000, 0.0000000E+000, 0.0000000E+000, 0.0000000E+000, 0.0000000E+000, 0.0000000E+000, 0.0044998
 6336, 548, 0.054, 9.6636e-21, 1.19723e-19, 1.19574e-19, 0.054, 0.0000000E+000, 0.0000000E+000, 0.0000000E+000, 0.0000000E+000, 0.0000000E+000, 0.0000000E+000, 0.0045001
 6372, 551, 0.054, 9.6636e-21, 1.19723e-19, 1.19574e-19, 0.054, 0.0000000E+000, 0.0000000E+000, 0.0000000E+000, 0.0000000E+000, 0.0000000E+000, 0.0000000E+000, 0.0045001
 6408, 554, 0.054, 9.6636e-21, 1.19723e-19, 1.19574e-19, 0.054, 0.0000000E+000, 0.0000000E+000, 0.0000000E+000, 0.0000000E+000, 0.0000000E+000, 0.0000000E+000, 0.0044998
 6444, 557, 0.054, 9.6636e-21, 1.19723e-19, 1.19574e-19, 0.054, 0.0000000E+000, 0.0000000E+000, 0.0000000E+000, 0.0000000E+000, 0.0000000E+000, 0.0000000E+000, 0.0045004
 6480, 560, 0.054, 9.6636e-21, 1.19723e-19, 1.19574e-19, 0.054, 0.0000000E+000, 0.0000000E+000, 0.0000000E+000, 0.0000000E+000, 0.0000000E+000, 0.0000000E+000, 0.0045001
 6516, 563, 0.054, 9.6636e-21, 1.19723e-19, 1.19574e-19, 0.054, 0.0000000E+000, 0.0000000E+000, 0.0000000E+000, 0.0000000E+000, 0.0000000E+000, 0.0000000E+000, 0.0045004
 6552, 566, 0.054, 9.6636e-21, 1.19723e-19, 1.19574e-19, 0.054, 0.0000000E+000, 0.0000000E+000, 0.0000000E+000, 0.0000000E+000, 0.0000000E+000, 0.0000000E+000, 0.0044998
 6588, 569, 0.054, 9.6636e-21, 1.19723e-19, 1.19574e-19, 0.054, 0.0000000E+000, 0.0000000E+000, 0.0000000E+000, 0.0000000E+000, 0.0000000E+000, 0.0000000E+000, 0.0045004
 6624, 572, 0.054, 9.6636e-21, 1.19723e-19, 1.19574e-19, 0.054, 0.0000000E+000, 0.0000000E+000, 0.0000000E+000, 0.0000000E+000, 0.0000000E+000, 0.0000000E+000, 0.0045001
 6660, 575, 0.054, 9.6636e-21, 1.19723e-19, 1.19574e-19, 0.054, 0.0000000E+000, 0.0000000E+000, 0.0000000E+000, 0.0000000E+000, 0.0000000E+000, 0.0000000E+000, 0.0045001
 6696, 578, 0.054, 9.6636e-21, 1.19723e-19, 1.19574e-19, 0.054, 0.0000000E+000, 0.0000000E+000, 0.0000000E+000, 0.0000000E+000, 0.0000000E+000, 0.0000000E+000, 0.0045001
 6732, 581, 0.054, 9.6636e-21, 1.19723e-19, 1.19574e-19, 0.054, 0.0000000E+000, 0.0000000E+000, 0.0000000E+000, 0.0000000E+000, 0.0000000E+000, 0.0000000E+000, 0.0045001
 6768, 584, 0.054, 9.6636e-21, 1.19723e-19, 1.19574e-19, 0.054, 0.0000000E+000, 0.0000000E+000, 0.0000000E+000, 0.0000000E+000, 0.0000000E+000, 0.0000000E+000, 0.0045001
 6804, 587, 0.054, 9.6636e-21, 1.19723e-19, 1.19574e-19, 0.054, 0.0000000E+000, 0.0000000E+000, 0.0000000E+000, 0.0000000E+000, 0.0000000E+000, 0.0000000E+000, 0.0044998
 6840, 590, 0.054, 9.6636e-21, 1.19723e-19, 1.19574e-19, 0.054, 0.0000000E+000, 0.0000000E+000, 0.0000000E+000, 0.0000000E+000, 0.0000000E+000, 0.0000000E+000, 0.0045001
 6876, 593, 0.054, 9.6636e-21, 1.19723e-19, 1.19574e-19, 0.054, 0.0000000E+000, 0.0000000E+000, 0.0000000E+000, 0.0000000E+000, 0.0000000E+000, 0.0000000E+000, 0.0045001
 6912, 596, 0.054, 9.6636e-21, 1.19723e-19, 1.19574e-19, 0.054, 0.0000000E+000, 0.0000000E+000, 0.0000000E+000, 0.0000000E+000, 0.0000000E+000, 0.0000000E+000, 0.0045004
 6948, 599, 0.054, 9.6636e-21, 1.19723e-19, 1.19574e-19, 0.054, 0.0000000E+000, 0.0000000E+000, 0.0000000E+000, 0.0000000E+000, 0.0000000E+000, 0.0000000E+000, 0.0044998
 6984, 602, 0.054, 9.6636e-21, 1.19723e-19, 1.19574e-19, 0.054, 0.0000000E+000, 0.0000000E+000, 0.0000000E+000, 0.0000000E+000, 0.0000000E+000, 0.0000000E+000, 0.0045001
 7020, 605, 0.054, 9.6636e-21, 1.19723e-19, 1.19574e-19, 0.054, 0.0000000E+000, 0.0000000E+000, 0.0000000E+000, 0.0000000E+000, 0.0000000E+000, 0.0000000E+000, 0.0045001
 7056, 608, 0.054, 9.6636e-21, 1.19723e-19, 1.19574e-19, 0.054, 0.0000000E+000, 0.0000000E+000, 0.0000000E+000, 0.0000000E+000, 0.0000000E+000, 0.0000000E+000, 0.0045004
 7092, 611, 0.054, 9.6636e-21, 1.19723e-19, 1.19574e-19, 0.054, 0.0000000E+000, 0.0000000E+000, 0.0000000E+000, 0.0000000E+000, 0.0000000E+000, 0.0000000E+000, 0.0044998
 7128, 614, 0.054, 9.6636e-21, 1.19723e-19, 1.19574e-19, 0.054, 0.0000000E+000, 0.0000000E+000, 0.0000000E+000, 0.0000000E+000, 0.0000000E+000, 0.0000000E+000, 0.0045001
 7164, 617, 0.054, 9.6636e-21, 1.19723e-19, 1.19574e-19, 0.054, 0.0000000E+000, 0.0000000E+000, 0.0000000E+000, 0.0000000E+000, 0.0000000E+000, 0.0000000E+000, 0.0045001
 7200, 620, 0.054, 9.6636e-21, 1.19723e-19, 1.19574e-19, 0.054, 0.0000000E+000, 0.0000000E+000, 0.0000000E+000, 0.0000000E+000, 0.0000000E+000, 0.0000000E+000, 0.0045001
 7236, 623, 0.054, 9.6636e-21, 1.19723e-19, 1.19574e-19, 0.054, 0.0000000E+000, 0.0000000E+000, 0.0000000E+000, 0.0000000E+000, 0.0000000E+000, 0.0000000E+000, 0.0044998
 7272, 626, 0.054, 9.6636e-21, 1.19723e-19, 1.19574e-19, 0.054, 0.0000000E+000, 0.0000000E+000, 0.0000000E+000, 0.0000000E+000, 0.0000000E+000, 0.0000000E+000, 0.0044998
 7308, 629, 0.054, 9.6636e-21, 1.19723e-19, 1.19574e-19, 0.054, 0.0000000E+000, 0.0000000E+000, 0.0000000E+000, 0.0000000E+000, 0.0000000E+000, 0.0000000E+000, 0.0045001
 7344, 632, 0.054, 9.6636e-21, 1.19723e-19, 1.19574e-19, 0.054, 0.0000000E+000, 0.0000000E+000, 0.0000000E+000, 0.0000000E+000, 0.0000000E+000, 0.0000000E+000, 0.0045001
 7380, 635, 0.054, 9.6636e-21, 1.19723e-19, 1.19574e-19, 0.054, 0.0000000E+000, 0.0000000E+000, 0.0000000E+000, 0.0000000E+000, 0.0000000E+000, 0.0000000E+000, 0.0045004
 7416, 638, 0.054, 9.6636e-21, 1.19723e-19, 1.19574e-19, 0.054, 0.0000000E+000, 0.0000000E+000, 0.0000000E+000, 0.0000000E+000, 0.0000000E+000, 0.0000000E+000, 0.0045001
 7452, 641, 0.054, 9.6636e-21, 1.19723e-19, 1.19574e-19, 0.054, 0.0000000E+000, 0.0000000E+000, 0.0000000E+000, 0.0000000E+000, 0.0000000E+000, 0.0000000E+000, 0.0045001
 7488, 644, 0.054, 9.6636e-21, 1.19723e-19, 1.19574e-19, 0.054, 0.0000000E+000, 0.0000000E+000, 0.0000000E+000, 0.0000000E+000, 0.0000000E+000, 0.0000000E+000, 0.0044998
 7524, 647, 0.054, 9.6636e-21, 1.19723e-19, 1.19574e-19, 0.054, 0.0000000E+000, 0.0000000E+000, 0.0000000E+000, 0.0000000E+000, 0.0000000E+000, 0.0000000E+000, 0.0045004
 7560, 650, 0.054, 9.6636e-21, 1.19723e-19, 1.19574e-19, 0.054, 0.0000000E+000, 0.0000000E+000, 0.0000000E+000, 0.0000000E+000, 0.0000000E+000, 0.0000000E+000, 0.0045004
 7596, 653, 0.054, 9.6636e-21, 1.19723e-19, 1.19574e-19, 0.054, 0.0000000E+000, 0.0000000E+000, 0.0000000E+000, 0.0000000E+000, 0.0000000E+000, 0.0000000E+000, 0.0045004
 7632, 656, 0.054, 9.6636e-21, 1.19723e-19, 1.19574e-19, 0.054, 0.0000000E+000, 0.0000000E+000, 0.0000000E+000, 0.0000000E+000, 0.0000000E+000, 0.0000000E+000, 0.0044998
 7668, 659, 0.054, 9.6636e-21, 1.19723e-19, 1.19574e-19, 0.054, 0.0000000E+000, 0.0000000E+000, 0.0000000E+000, 0.0000000E+000, 0.0000000E+000, 0.0000000E+000, 0.0044998
 7704, 662, 0.054, 9.6636e-21, 1.19723e-19, 1.19574e-19, 0.054, 0.0000000E+000, 0.0000000E+000, 0.0000000E+000, 0.0000000E+000, 0.0000000E+000, 0.0000000E+000, 0.0045001
 7740, 665, 0.054, 9.6636e-21, 1.19723e-19, 1.19574e-19, 0.054, 0.0000000E+000, 0.0000000E+000, 0.0000000E+000, 0.0000000E+000, 0.0000000E+000, 0.0000000E+000, 0.0045004
 7776, 668, 0.054, 9.6636e-21, 1.19723e-19, 1.19574e-19, 0.054, 0.0000000E+000, 0.0000000E+000, 0.0000000E+000, 0.0000000E+000, 0.0000000E+000, 0.0000000E+000, 0.0045001
 7812, 671, 0.054, 9.6636e-21, 1.19723e-19, 1.19574e-19, 0.054, 0.0000000E+000, 0.0000000E+000, 0.0000000E+000, 0.0000000E+000, 0.0000000E+000, 0.0000000E+000, 0.0044998
 7848, 674, 0.054, 9.6636e-21, 1.19723e-19, 1.19574e-19, 0.054, 0.0000000E+000, 0.0000000E+000, 0.0000000E+000, 0.0000000E+000, 0.0000000E+000, 0.0000000E+000, 0.0045004
 7884, 677, 0.054, 9.6636e-21, 1.19723e-19, 1.19574e-19, 0.054, 0.0000000E+000, 0.0000000E+000, 0.0000000E+000, 0.0000000E+000, 0.0000000E+000, 0.0000000E+000, 0.0045001
 7920, 680, 0.054, 9.6636e-21, 1.19723e-19, 1.19574e-19, 0.054, 0.0000000E+000, 0.0000000E+000, 0.0000000E+000, 0.0000000E+000, 0.0000000E+000, 0.0000000E+000, 0.0045004
 7956, 683, 0.054, 9.6636e-21, 1.19723e-19, 1.19574e-19, 0.054, 0.0000000E+000, 0.0000000E+000, 0.0000000E+000, 0.0000000E+000, 0.0000000E+000, 0.0000000E+000, 0.0045001
 7992, 686, 0.054, 9.6636e-21, 1.19723e-19, 1.19574e-19, 0.054, 0.0000000E+000, 0.0000000E+000, 0.0000000E+000, 0.0000000E+000, 0.0000000E+000, 0.0000000E+000, 0.0045004
 8028, 689, 0.054, 9.6636e-21, 1.19723e-19, 1.19574e-19, 0.054, 0.0000000E+000, 0.0000000E+000, 0.0000000E+000, 0.0000000E+000, 0.0000000E+000, 0.0000000E+000, 0.0045001
 8064, 692, 0.054, 9.6636e-21, 1.19723e-19, 1.19574e-19, 0.054, 0.0000000E+000, 0.0000000E+000, 0.0000000E+000, 0.0000000E+000, 0.0000000E+000, 0.0000000E+000, 0.0045001
 8100, 695, 0.054, 9.6636e-21, 1.19723e-19, 1.19574e-19, 0.054, 0.0000000E+000, 0.0000000E+000, 0.0000000E+000, 0.0000000E+000, 0.0000000E+000, 0.0000000E+000, 0.0045001
 8136, 698, 0.054, 9.6636e-21, 1.19723e-19, 1.19574e-19, 0.054, 0.0000000E+000, 0.0000000E+000, 0.0000000E+000, 0.0000000E+000, 0.0000000E+000, 0.0000000E+000, 0.0045001
 8172, 701, 0.054, 9.6636e-21, 1.19723e-19, 1.19574e-19, 0.054, 0.0000000E+000, 0.0000000E+000, 0.0000000E+000, 0.0000000E+000, 0.0000000E+000, 0.0000000E+000, 0.0045001
 8208, 704, 0.054, 9.6636e-21, 1.19723e-19, 1.19574e-19, 0.054, 0.0000000E+000, 0.0000000E+000, 0.0000000E+000, 0.0000000E+000, 0.0000000E+000, 0.0000000E+000, 0.0044998
 8244, 707, 0.054, 9.6636e-21, 1.19723e-19, 1.19574e-19, 0.054, 0.0000000E+000, 0.0000000E+000, 0.0000000E+000, 0.0000000E+000, 0.0000000E+000, 0.0000000E+000, 0.0045001
 8280, 710, 0.054, 9.6636e-21, 1.19723e-19, 1.19574e-19, 0.054, 0.0000000E+000, 0.0000000E+000, 0.0000000E+000, 0.0000000E+000, 0.0000000E+000, 0.0000000E+000, 0.0045004
 8316, 713, 0.054, 9.6636e-21, 1.19723e-19, 1.19574e-19, 0.054, 0.0000000E+000, 0.0000000E+000, 0.0000000E+000, 0.0000000E+000, 0.0000000E+000, 0.0000000E+000, 0.0045001
 8352, 716, 0.054, 9.6636e-21, 1.19723e-19, 1.19574e-19, 0.054, 0.0000000E+000, 0.0000000E+000, 0.0000000E+000, 0.0000000E+000, 0.0000000E+000, 0.0000000E+000, 0.0044998
 8388, 719, 0.054, 9.6636e-21, 1.19723e-19, 1.19574e-19, 0.054, 0.0000000E+000, 0.0000000E+000, 0.0000000E+000, 0.0000000E+000, 0.0000000E+000, 0.0000000E+000, 0.0045004
 8424, 722, 0.054, 9.6636e-21, 1.19723e-19, 1.19574e-19, 0.054, 0.0000000E+000, 0.0000000E+000, 0.0000000E+000, 0.0000000E+000, 0.0000000E+000, 0.0000000E+000, 0.0045001
 8460, 725, 0.054, 9.6636e-21, 1.19723e-19, 1.19574e-19, 0.054, 0.0000000E+000, 0.0000000E+000, 0.0000000E+000, 0.0000000E+000, 0.0000000E+000, 0.0000000E+000, 0.0045004
 8496, 728, 0.054, 9.6636e-21, 1.19723e-19, 1.19574e-19, 0.054, 0.0000000E+000, 0.0000000E+000, 0.0000000E+000, 0.0000000E+000, 0.0000000E+000, 0.0000000E+000, 0.0044998
 8532, 731, 0.054, 9.6636e-21, 1.19723e-19, 1.19574e-19, 0.054, 0.0000000E+000, 0.0000000E+000, 0.0000000E+000, 0.0000000E+000, 0.0000000E+000, 0.0000000E+000, 0.0045004
 8568, 734, 0.054, 9.6636e-21, 1.19723e-19, 1.19574e-19, 0.054, 0.0000000E+000, 0.0000000E+000, 0.0000000E+000, 0.0000000E+000, 0.0000000E+000, 0.0000000E+000, 0.0044998
 8604, 737, 0.054, 9.6636e-21, 1.19723e-19, 1.19574e-19, 0.054, 0.0000000E+000, 0.0000000E+000, 0.0000000E+000, 0.0000000E+000, 0.0000000E+000, 0.0000000E+000, 0.0045001
 8640, 740, 0.054, 9.6636e-21, 1.19723e-19, 1.19574e-19, 0.054, 0.0000000E+000, 0.0000000E+000, 0.0000000E+000, 0.0000000E+000, 0.0000000E+000, 0.0000000E+000, 0.0045001
 8676, 743, 0.054, 9.6636e-21, 1.19723e-19, 1.19574e-19, 0.054, 0.0000000E+000, 0.0000000E+000, 0.0000000E+000, 0.0000000E+000, 0.0000000E+000, 0.0000000E+000, 0.0044998
 8712, 746, 0.054, 9.6636e-21, 1.19723e-19, 1.19574e-19, 0.054, 0.0000000E+000, 0.0000000E+000, 0.0000000E+000, 0.0000000E+000, 0.0000000E+000, 0.0000000E+000, 0.0045001
 8748, 749, 0.054, 9.6636e-21, 1.19723e-19, 1.19574e-19, 0.054, 0.0000000E+000, 0.0000000E+000, 0.0000000E+000, 0.0000000E+000, 0.0000000E+000, 0.0000000E+000, 0.0044998
 8784, 752, 0.054, 9.6636e-21, 1.19723e-19, 1.19574e-19, 0.054, 0.0000000E+000, 0.0000000E+000, 0.0000000E+000, 0.0000000E+000, 0.0000000E+000, 0.0000000E+000, 0.0045001
 8820, 755, 0.054, 9.6636e-21, 1.19723e-19, 1.19574e-19, 0.054, 0.0000000E+000, 0.0000000E+000, 0.0000000E+000, 0.0000000E+000, 0.0000000E+000, 0.0000000E+000, 0.0045001
 8856, 758, 0.054, 9.6636e-21, 1.19723e-19, 1.19574e-19, 0.054, 0.0000000E+000, 0.0000000E+000, 0.0000000E+000, 0.0000000E+000, 0.0000000E+000, 0.0000000E+000, 0.0044995
 8892, 761, 0.054, 9.6636e-21, 1.19723e-19, 1.19574e-19, 0.054, 0.0000000E+000, 0.0000000E+000, 0.0000000E+000, 0.0000000E+000, 0.0000000E+000, 0.0000000E+000, 0.00450071
 8928, 764, 0.054, 9.6636e-21, 1.19723e-19, 1.19574e-19, 0.054, 0.0000000E+000, 0.0000000E+000, 0.0000000E+000, 0.0000000E+000, 0.0000000E+000, 0.0000000E+000, 0.0045001
 8964, 767, 0.054, 9.6636e-21, 1.19723e-19, 1.19574e-19, 0.054, 0.0000000E+000, 0.0000000E+000, 0.0000000E+000, 0.0000000E+000, 0.0000000E+000, 0.0000000E+000, 0.0045001
 9000, 770, 0.054, 9.6636e-21, 1.19723e-19, 1.19574e-19, 0.054, 0.0000000E+000, 0.0000000E+000, 0.0000000E+000, 0.0000000E+000, 0.0000000E+000, 0.0000000E+000, 0.0045001
 9036, 773, 0.054, 9.6636e-21, 1.19723e-19, 1.19574e-19, 0.054, 0.0000000E+000, 0.0000000E+000, 0.0000000E+000, 0.0000000E+000, 0.0000000E+000, 0.0000000E+000, 0.0045001
 9072, 776, 0.054, 9.6636e-21, 1.19723e-19, 1.19574e-19, 0.054, 0.0000000E+000, 0.0000000E+000, 0.0000000E+000, 0.0000000E+000, 0.0000000E+000, 0.0000000E+000, 0.0045001
 9108, 779, 0.054, 9.6636e-21, 1.19723e-19, 1.19574e-19, 0.054, 0.0000000E+000, 0.0000000E+000, 0.0000000E+000, 0.0000000E+000, 0.0000000E+000, 0.0000000E+000, 0.0045001
 9144, 782, 0.054, 9.6636e-21, 1.19723e-19, 1.19574e-19, 0.054, 0.0000000E+000, 0.0000000E+000, 0.0000000E+000, 0.0000000E+000, 0.0000000E+000, 0.0000000E+000, 0.0045001
 9180, 785, 0.054, 9.6636e-21, 1.19723e-19, 1.19574e-19, 0.054, 0.0000000E+000, 0.0000000E+000, 0.0000000E+000, 0.0000000E+000, 0.0000000E+000, 0.0000000E+000, 0.0045001
 9216, 788, 0.054, 9.6636e-21, 1.19723e-19, 1.19574e-19, 0.054, 0.0000000E+000, 0.0000000E+000, 0.0000000E+000, 0.0000000E+000, 0.0000000E+000, 0.0000000E+000, 0.0045001
 9252, 791, 0.054, 9.6636e-21, 1.19723e-19, 1.19574e-19, 0.054, 0.0000000E+000, 0.0000000E+000, 0.0000000E+000, 0.0000000E+000, 0.0000000E+000, 0.0000000E+000, 0.0045001
 9288, 794, 0.054, 9.6636e-21, 1.19723e-19, 1.19574e-19, 0.054, 0.0000000E+000, 0.0000000E+000, 0.0000000E+000, 0.0000000E+000, 0.0000000E+000, 0.0000000E+000, 0.0045001
 9324, 797, 0.054, 9.6636e-21, 1.19723e-19, 1.19574e-19, 0.054, 0.0000000E+000, 0.0000000E+000, 0.0000000E+000, 0.0000000E+000, 0.0000000E+000, 0.0000000E+000, 0.0045001
 9360, 800, 0.054, 9.6636e-21, 1.19723e-19, 1.19574e-19, 0.054, 0.0000000E+000, 0.0000000E+000, 0.0000000E+000, 0.0000000E+000, 0.0000000E+000, 0.0000000E+000, 0.0045001